Packet Number,Gyroscope X (deg/s),Gyroscope Y (deg/s),Gyroscope Z (deg/s),Accelerometer X (g),Accelerometer Y (g),Accelerometer Z (g),Magnetometer X (G),Magnetometer Y (G),Magnetometer Z (G)
113,0,0.0625,0,0.02587891,0.02246094,1.00293,0.5766602,-0.9326172,-2.935059
117,0,0.0625,0,0.02587891,0.02246094,1.00293,0.5766602,-0.9326172,-2.935059
118,0.0625,-0.0625,0,0.01025391,0.01416016,0.9833984,0.5766602,-0.9326172,-2.935059
122,0.0625,-0.0625,0,0.005859375,0.006347656,1.00293,0.5766602,-0.9326172,-2.935059
123,-0.0625,-0.0625,-0.0625,-0.005371094,0.01855469,0.9750977,0.5922852,-0.9350586,-2.9375
127,0.0625,0.125,-0.0625,0.01025391,0.006347656,0.9833984,0.5922852,-0.9350586,-2.9375
128,0.0625,0,0,0.01025391,0.006347656,1.010742,0.5922852,-0.9350586,-2.9375
132,0.0625,-0.0625,-0.125,0.01025391,0.01416016,1.014648,0.5844727,-0.9350586,-2.932617
133,-0.0625,0,0,0.01025391,0.02636719,0.9912109,0.5844727,-0.9350586,-2.932617
137,0,-0.0625,0.125,0.005859375,0.006347656,0.9873047,0.5844727,-0.9350586,-2.932617
138,0.1875,0,-0.125,0.02587891,-0.005371094,1.00293,0.5844727,-0.9404297,-2.935059
142,0.125,0,0.0625,0.005859375,0.006347656,0.9912109,0.5844727,-0.9404297,-2.935059
143,0.0625,0,0,0.005859375,0.01416016,0.9873047,0.5844727,-0.9404297,-2.935059
147,0.1875,-0.125,-0.0625,0.001953125,0.02246094,1.014648,0.5844727,-0.9404297,-2.935059
148,0.0625,0,-0.125,0.01416016,-0.02099609,0.9750977,0.5869141,-0.9428711,-2.942871
152,0.0625,0.0625,0,-0.005371094,0.002441406,0.9990234,0.5869141,-0.9428711,-2.942871
153,0.0625,0,0,0.005859375,0.006347656,0.9750977,0.5869141,-0.9428711,-2.942871
157,0,0,0,-0.005371094,-0.009277344,0.9951172,0.5820313,-0.9350586,-2.929688
158,0.125,0.125,-0.25,0.005859375,0.02246094,0.9833984,0.5820313,-0.9350586,-2.929688
162,0.125,-0.0625,-0.0625,-0.005371094,0.01025391,0.9873047,0.5820313,-0.9350586,-2.929688
163,-0.125,0,0.1875,0.01806641,0.01855469,1.014648,0.5869141,-0.9350586,-2.932617
167,0.0625,0.0625,-0.1875,0.01025391,0.01855469,0.9951172,0.5869141,-0.9350586,-2.932617
168,0.1875,0.1875,0,0.001953125,0.03417969,0.9912109,0.5869141,-0.9350586,-2.932617
172,0.125,0.1875,0.0625,-0.001464844,0.01025391,1.014648,0.5869141,-0.9350586,-2.932617
173,0.125,0,0,0.02587891,0.01025391,1.014648,0.5820313,-0.9350586,-2.927246
177,0,0,-0.125,0.01416016,0.01025391,0.9912109,0.5820313,-0.9350586,-2.927246
178,0.125,0.0625,0.0625,0.01806641,0.01025391,1.010742,0.5820313,-0.9350586,-2.927246
182,0.0625,0,-0.0625,0.02197266,0.02636719,1.00293,0.5947266,-0.9350586,-2.932617
183,0,0.1875,-0.3125,0.01416016,0.01855469,0.9990234,0.5947266,-0.9350586,-2.932617
187,0.25,0,-0.0625,-0.001464844,0.01416016,1.006836,0.5947266,-0.9350586,-2.932617
188,0.0625,0,-0.0625,0.01025391,0.02636719,0.9990234,0.5947266,-0.9350586,-2.932617
192,0.0625,0.25,0,0.001953125,0.02246094,1.00293,0.5947266,-0.9350586,-2.932617
193,0,0,0,-0.001464844,0.03027344,1.010742,0.5947266,-0.9350586,-2.932617
197,-0.0625,0.0625,-0.125,0.01025391,0.002441406,0.9951172,0.5947266,-0.9350586,-2.932617
198,0.125,0,-0.0625,0.005859375,0.01025391,0.9990234,0.5844727,-0.9428711,-2.932617
202,0.125,0,0,-0.001464844,0.01416016,1.010742,0.5844727,-0.9428711,-2.932617
203,0,0,0,0.01806641,0.02246094,1.014648,0.5844727,-0.9428711,-2.932617
207,0,-0.0625,0.0625,0.01025391,0.01025391,0.9951172,0.5717773,-0.9350586,-2.927246
208,0,0,-0.0625,0.005859375,0.02246094,0.9951172,0.5717773,-0.9350586,-2.927246
212,-0.0625,-0.0625,0,0.005859375,0.02246094,1.010742,0.5717773,-0.9350586,-2.927246
213,0,0,0,0.01416016,0.02636719,0.9873047,0.5717773,-0.9350586,-2.927246
217,0,0,0,-0.001464844,0.01416016,0.9951172,0.5820313,-0.925293,-2.924805
218,0,0,-0.0625,-0.005371094,0.01025391,0.9912109,0.5820313,-0.925293,-2.924805
222,-0.0625,0,0,0.01025391,0.03027344,1.00293,0.5820313,-0.925293,-2.924805
223,0.25,0.125,0,-0.01708984,0.03417969,0.9990234,0.5922852,-0.9379883,-2.929688
227,0.125,-0.0625,-0.125,0.02587891,0.01025391,0.9951172,0.5922852,-0.9379883,-2.929688
228,0.0625,0.0625,0,0.02197266,0.01855469,1.026367,0.5922852,-0.9379883,-2.929688
232,0,0.125,0,0.02978516,0.03027344,1.014648,0.5898438,-0.9379883,-2.927246
233,0,0.125,0.125,0.02197266,-0.005371094,1.014648,0.5898438,-0.9379883,-2.927246
237,0.1875,0.125,-0.0625,0.01416016,0.03857422,0.9912109,0.5898438,-0.9379883,-2.927246
238,-0.0625,0.125,0.0625,0.01416016,-0.005371094,1.010742,0.5898438,-0.9379883,-2.927246
242,0,0,0,0.01806641,0.03027344,0.9912109,0.5869141,-0.9277344,-2.935059
243,0,0.0625,-0.0625,0.01416016,0.002441406,0.9990234,0.5869141,-0.9277344,-2.935059
247,0.125,0,0,0.001953125,0.02636719,0.9990234,0.5869141,-0.9277344,-2.935059
248,0,0.0625,-0.125,0.01806641,0.01025391,0.9873047,0.5766602,-0.9350586,-2.927246
252,0.25,-0.0625,0,0.01806641,0.002441406,1.006836,0.5766602,-0.9350586,-2.927246
253,-0.0625,-0.125,-0.3125,0.005859375,-0.0009765625,1.010742,0.5766602,-0.9350586,-2.927246
257,0,-0.0625,0,0.01416016,0.01416016,0.9990234,0.5898438,-0.9453125,-2.927246
258,0,-0.0625,-0.0625,0.01025391,0.01025391,0.9750977,0.5898438,-0.9453125,-2.927246
262,0.3125,0,-0.1875,0.01025391,0.006347656,1.010742,0.5898438,-0.9453125,-2.927246
263,0.0625,0,0.0625,0.02197266,0.02246094,0.9990234,0.5898438,-0.9453125,-2.927246
267,0,0,-0.0625,0.01025391,0.02246094,0.9990234,0.5869141,-0.9326172,-2.929688
268,0,0.0625,0,0.02197266,0.01025391,0.9833984,0.5869141,-0.9326172,-2.929688
272,0.25,0,-0.25,0.01806641,0.01855469,0.9951172,0.5869141,-0.9326172,-2.929688
274,-0.125,0,-0.1875,0.02587891,0.02246094,1.014648,0.5766602,-0.9326172,-2.927246
278,-0.0625,0,0.1875,0.01416016,0.01416016,1.010742,0.5766602,-0.9326172,-2.927246
279,0,0.125,0,0.005859375,0.01025391,1.010742,0.5766602,-0.9326172,-2.927246
283,0,-0.0625,0,0.001953125,0.01855469,1.018555,0.5766602,-0.9326172,-2.927246
284,0.125,0.125,0,-0.005371094,0.03417969,0.9951172,0.5766602,-0.9326172,-2.927246
288,0.1875,0.0625,-0.0625,0.01025391,0.01855469,1.006836,0.5766602,-0.9326172,-2.927246
289,0,0.125,-0.0625,0.02587891,0.006347656,1.010742,0.5766602,-0.9326172,-2.927246
293,0,0.0625,0.125,-0.001464844,0.006347656,1.00293,0.5976563,-0.9379883,-2.929688
294,0.125,0,0,0.001953125,0.01416016,1.022461,0.5976563,-0.9379883,-2.929688
298,0,-0.125,0,0.01025391,0.01025391,1.010742,0.5976563,-0.9379883,-2.929688
299,-0.125,-0.1875,-0.0625,-0.001464844,-0.005371094,0.9951172,0.5844727,-0.9350586,-2.932617
303,0.0625,0,0,0.01806641,0.02246094,1.018555,0.5844727,-0.9350586,-2.932617
304,0.0625,-0.125,0,0.01416016,-0.005371094,1.00293,0.5844727,-0.9350586,-2.932617
308,0,0.1875,-0.125,0.005859375,-0.0009765625,1.010742,0.5844727,-0.9350586,-2.932617
309,0,-0.0625,0,-0.005371094,0.01025391,0.9951172,0.5820313,-0.9326172,-2.927246
313,0.125,0.1875,-0.125,0.01416016,0.006347656,0.9750977,0.5820313,-0.9326172,-2.927246
314,0.0625,0,0,0.01025391,0.03417969,1.010742,0.5820313,-0.9326172,-2.927246
318,-0.0625,-0.0625,0,0.01416016,0.01855469,0.9873047,0.5898438,-0.9453125,-2.935059
319,0,-0.0625,0,0.01416016,-0.0009765625,0.9790039,0.5898438,-0.9453125,-2.935059
323,0.1875,0.0625,0,0.005859375,0.01025391,1.014648,0.5898438,-0.9453125,-2.935059
324,0.0625,-0.1875,0,0.005859375,0.03417969,1.010742,0.5898438,-0.9428711,-2.932617
328,0,0,0,0.01416016,0.01025391,1.018555,0.5898438,-0.9428711,-2.932617
329,0,0.0625,0.125,0.005859375,0.01855469,1.014648,0.5898438,-0.9428711,-2.932617
333,0,-0.1875,0,0.01806641,0.03417969,0.9990234,0.5898438,-0.9428711,-2.932617
334,0.0625,0,-0.0625,-0.005371094,0.01025391,1.010742,0.5844727,-0.9350586,-2.929688
338,0.1875,0,-0.0625,0.01025391,0.002441406,1.018555,0.5844727,-0.9350586,-2.929688
339,0.25,0,0,0.005859375,0.01855469,1.010742,0.5844727,-0.9350586,-2.929688
343,0,0,-0.1875,0.001953125,0.03027344,1.006836,0.5898438,-0.9379883,-2.924805
344,0,0.125,-0.0625,0.005859375,0.01025391,0.9990234,0.5898438,-0.9379883,-2.924805
348,0,-0.0625,0,0.01806641,-0.005371094,0.9790039,0.5898438,-0.9379883,-2.924805
349,0,0.0625,0,0.01806641,-0.005371094,0.9990234,0.5869141,-0.9379883,-2.932617
353,0.125,0,0,0.01025391,0.006347656,1.010742,0.5869141,-0.9379883,-2.932617
354,0,0,0,0.02587891,0.01855469,0.9951172,0.5869141,-0.9379883,-2.932617
358,0.25,0.1875,-0.0625,0.01806641,-0.01708984,0.9873047,0.5869141,-0.9379883,-2.932617
359,-0.0625,0,0.25,0.001953125,0.006347656,0.9951172,0.5820313,-0.9428711,-2.929688
363,0,-0.0625,-0.125,-0.001464844,0.02246094,0.9912109,0.5820313,-0.9428711,-2.929688
364,-0.0625,0,0.0625,0.01025391,0.02636719,0.9833984,0.5820313,-0.9428711,-2.929688
368,0.125,0,-0.0625,0.01025391,0.006347656,1.010742,0.5820313,-0.9350586,-2.929688
369,0,0.125,0.1875,0.005859375,0.01025391,1.014648,0.5820313,-0.9350586,-2.929688
373,0.0625,-0.0625,0,0.01025391,0.01025391,0.9951172,0.5820313,-0.9350586,-2.929688
374,0.0625,0,-0.0625,0.02587891,-0.0009765625,1.014648,0.5820313,-0.9350586,-2.929688
378,-0.0625,0,-0.125,0.001953125,0.01855469,1.010742,0.5820313,-0.9350586,-2.929688
379,0.0625,-0.125,0,-0.005371094,0.01025391,1.010742,0.5820313,-0.9350586,-2.929688
383,0.1875,0.125,0,0.01416016,0.04248047,1.010742,0.5820313,-0.9350586,-2.929688
384,-0.125,-0.125,0.0625,-0.001464844,0.006347656,0.9990234,0.5791016,-0.9326172,-2.924805
388,0.0625,0,-0.25,0.02197266,0.01416016,0.9951172,0.5791016,-0.9326172,-2.924805
389,-0.125,0.0625,0.125,0.01025391,0.002441406,1.00293,0.5791016,-0.9326172,-2.924805
393,0,0,-0.0625,0.01025391,0.01855469,1.010742,0.5898438,-0.9301758,-2.935059
394,0.0625,0,-0.0625,0.01806641,0.002441406,0.9951172,0.5898438,-0.9301758,-2.935059
398,0.0625,0.0625,0,0.01806641,0.01025391,0.9912109,0.5898438,-0.9301758,-2.935059
399,0.1875,0.0625,-0.125,0.01806641,0.01416016,1.018555,0.5898438,-0.9301758,-2.935059
403,0.0625,0.0625,-0.0625,0.01025391,0.01025391,0.9833984,0.5791016,-0.9379883,-2.935059
404,0.1875,0.0625,0.0625,0.02587891,0.01855469,0.9912109,0.5791016,-0.9379883,-2.935059
408,0,0.25,0.0625,0.001953125,0.006347656,0.9951172,0.5791016,-0.9379883,-2.935059
409,0.125,0,-0.125,0.01806641,0.002441406,1.006836,0.5844727,-0.9350586,-2.929688
413,0,0,0.0625,0.005859375,-0.0009765625,0.9951172,0.5844727,-0.9350586,-2.929688
414,0,0,0,0.01025391,0.006347656,1.026367,0.5844727,-0.9350586,-2.929688
418,0.1875,0.0625,0,0.01025391,0.01025391,1.010742,0.5898438,-0.9428711,-2.9375
419,0.0625,0,-0.0625,0.01025391,0.03027344,1.014648,0.5898438,-0.9428711,-2.9375
423,-0.1875,0.0625,0,-0.01318359,0.02636719,1.014648,0.5898438,-0.9428711,-2.9375
424,0,0,-0.0625,0.01416016,0.01855469,0.9951172,0.5898438,-0.9428711,-2.9375
428,0,0,0.125,0.01806641,0.002441406,0.9990234,0.5869141,-0.9379883,-2.927246
429,0.1875,-0.0625,0,0.01416016,-0.0009765625,1.006836,0.5869141,-0.9379883,-2.927246
433,0,0.0625,-0.0625,0.01806641,0.006347656,0.9990234,0.5869141,-0.9379883,-2.927246
435,0.0625,0,0.0625,0.02197266,0.01855469,1.010742,0.5844727,-0.9404297,-2.932617
439,0.25,0.125,0,0.01416016,-0.0009765625,1.00293,0.5844727,-0.9404297,-2.932617
440,0.1875,0,-0.0625,0.02197266,0.006347656,0.9990234,0.5844727,-0.9404297,-2.932617
444,0.1875,-0.125,0,0.001953125,0.01025391,0.9990234,0.5820313,-0.9453125,-2.929688
445,-0.125,0,-0.0625,0.01806641,0.01855469,0.9951172,0.5820313,-0.9453125,-2.929688
449,0.1875,0,0,0.02197266,0.01855469,1.006836,0.5820313,-0.9453125,-2.929688
450,0.0625,0.0625,0,0.01416016,0.01416016,0.9912109,0.5820313,-0.9453125,-2.929688
454,0.125,0.125,0.125,0.005859375,0.01025391,0.9833984,0.5844727,-0.9326172,-2.929688
455,0.1875,0.0625,-0.125,0.01025391,0.002441406,1.00293,0.5844727,-0.9326172,-2.929688
459,0.125,0,0.125,0.01416016,0.01855469,0.9912109,0.5844727,-0.9326172,-2.929688
460,0,0.125,0,0.01806641,-0.005371094,0.9951172,0.5844727,-0.9428711,-2.924805
464,0.0625,0,0,0.001953125,0.006347656,0.9790039,0.5844727,-0.9428711,-2.924805
465,0.0625,0,-0.125,0.001953125,0.01025391,0.9912109,0.5844727,-0.9428711,-2.924805
469,0.125,0.0625,-0.0625,0.01806641,0.01025391,0.9951172,0.5844727,-0.9428711,-2.924805
470,-0.0625,0.125,0.1875,-0.009277344,0.02246094,1.010742,0.5844727,-0.9428711,-2.924805
474,0.3125,0,0.0625,-0.02099609,0.03027344,1.010742,0.5844727,-0.9428711,-2.924805
475,0,0,0,0.02587891,0.01416016,1.010742,0.5844727,-0.9428711,-2.924805
479,0,0,0,0.005859375,0.01416016,1.00293,0.5844727,-0.9453125,-2.9375
480,0.0625,-0.1875,0,0.01416016,0.01025391,1.00293,0.5844727,-0.9453125,-2.9375
484,0.125,0.125,0,0.01416016,0.02246094,0.9750977,0.5844727,-0.9453125,-2.9375
485,0,0,0,0.005859375,0.006347656,1.00293,0.5766602,-0.9477539,-2.927246
489,0,-0.0625,-0.1875,0.01806641,0.02246094,1.014648,0.5766602,-0.9477539,-2.927246
490,-0.0625,0,-0.0625,0.01025391,0.02636719,0.9873047,0.5766602,-0.9477539,-2.927246
494,0.25,0,0.0625,-0.009277344,0.01025391,1.010742,0.5766602,-0.9477539,-2.927246
495,0,0,-0.0625,0.02197266,0.03027344,0.9951172,0.5869141,-0.9379883,-2.935059
499,0,0.0625,-0.0625,0.01416016,0.02636719,1.010742,0.5869141,-0.9379883,-2.935059
500,0.0625,0.125,0.0625,0.02197266,0.01416016,0.9990234,0.5869141,-0.9379883,-2.935059
504,0.125,-0.1875,-0.1875,-0.01318359,0.02246094,1.00293,0.5869141,-0.9301758,-2.924805
505,0,0.0625,0,0.01806641,0.006347656,1.010742,0.5869141,-0.9301758,-2.924805
509,0,0,-0.0625,0.02197266,0.01416016,0.9990234,0.5869141,-0.9301758,-2.924805
510,-0.1875,-0.0625,0,0.01416016,-0.0009765625,0.9873047,0.5869141,-0.9350586,-2.922363
514,-0.125,0,0,0.005859375,0.01855469,0.9912109,0.5869141,-0.9350586,-2.922363
515,0,0.0625,-0.0625,0.001953125,0.01025391,1.00293,0.5869141,-0.9350586,-2.922363
519,0.125,0.1875,0,-0.009277344,0.01025391,0.9951172,0.5869141,-0.9350586,-2.922363
520,-0.125,0,0,-0.001464844,0.01025391,1.00293,0.5869141,-0.9404297,-2.927246
524,0,0.0625,-0.1875,0.01416016,0.002441406,1.00293,0.5869141,-0.9404297,-2.927246
525,0,-0.125,0.0625,-0.001464844,0.006347656,0.9750977,0.5869141,-0.9404297,-2.927246
529,0.125,0,-0.0625,0.01025391,0.02246094,0.9833984,0.5791016,-0.9404297,-2.932617
530,0,0.0625,0,0.01416016,0.002441406,1.00293,0.5791016,-0.9404297,-2.932617
534,0,-0.0625,-0.1875,0.01416016,0.01416016,1.006836,0.5791016,-0.9404297,-2.932617
535,0,0.0625,0,0.02587891,0.01416016,1.014648,0.5844727,-0.9301758,-2.932617
539,0.1875,0,0.1875,0.02197266,0.002441406,1.010742,0.5844727,-0.9301758,-2.932617
540,0,-0.0625,0.0625,0.01025391,0.006347656,1.010742,0.5844727,-0.9301758,-2.932617
544,0.1875,0.125,0.125,-0.001464844,0.01025391,0.9833984,0.5844727,-0.9301758,-2.932617
545,0,0.1875,-0.125,0.005859375,-0.0009765625,0.9990234,0.5898438,-0.9404297,-2.924805
549,0,-0.0625,0,0.02197266,0.02246094,1.010742,0.5898438,-0.9404297,-2.924805
550,0.0625,0,0,-0.001464844,0.02246094,1.006836,0.5898438,-0.9404297,-2.924805
554,0.125,-0.125,0.125,0.01806641,0.006347656,0.9990234,0.5766602,-0.9350586,-2.929688
555,0.125,0.125,0.125,0.001953125,-0.0009765625,0.9990234,0.5766602,-0.9350586,-2.929688
559,0.125,0,0.0625,0.01416016,0.02246094,0.9750977,0.5766602,-0.9350586,-2.929688
560,0,0,0,0.01416016,0.006347656,0.9873047,0.5766602,-0.9350586,-2.929688
564,0.1875,0,-0.0625,0.01806641,0.02246094,0.9912109,0.5766602,-0.9350586,-2.929688
565,-0.0625,0.125,0,0.02587891,-0.005371094,1.006836,0.5766602,-0.9350586,-2.929688
569,0.0625,-0.0625,0,0.005859375,0.002441406,1.010742,0.5766602,-0.9350586,-2.929688
570,0,0,-0.125,-0.001464844,0.006347656,0.9951172,0.5898438,-0.9301758,-2.924805
574,0,0.25,0.125,0.001953125,0.02636719,0.9951172,0.5898438,-0.9301758,-2.924805
575,0.125,-0.0625,-0.1875,-0.001464844,0.02246094,1.010742,0.5898438,-0.9301758,-2.924805
579,0.125,0.25,0,0.005859375,0.03027344,0.9951172,0.5869141,-0.9404297,-2.932617
580,0.0625,0,0,0.005859375,0.01025391,0.9990234,0.5869141,-0.9404297,-2.932617
584,0.125,0.0625,-0.1875,0.001953125,0.03417969,1.010742,0.5869141,-0.9404297,-2.932617
585,-0.0625,0.0625,0,0.03369141,0.02246094,0.9951172,0.5869141,-0.9404297,-2.932617
589,0.1875,-0.125,-0.125,0.01025391,0.01855469,0.9951172,0.5820313,-0.9477539,-2.929688
590,0,0.0625,0,0.01025391,0.01025391,1.010742,0.5820313,-0.9477539,-2.929688
594,0,0,0,0.02197266,0.01025391,0.9990234,0.5820313,-0.9477539,-2.929688
596,0.0625,0.0625,0,0.005859375,-0.0009765625,1.010742,0.5869141,-0.9350586,-2.935059
600,0,-0.0625,-0.125,0.01806641,0.01855469,0.9833984,0.5869141,-0.9350586,-2.935059
601,0,0.1875,0,0.001953125,0.01855469,1.010742,0.5869141,-0.9350586,-2.935059
605,0.0625,0,0.0625,0.01025391,0.01855469,0.9873047,0.5717773,-0.9326172,-2.94043
606,0,0,-0.125,0.005859375,0.01416016,1.014648,0.5717773,-0.9326172,-2.94043
610,0.0625,0,0,0.01806641,0.01416016,0.9833984,0.5717773,-0.9326172,-2.94043
611,0.1875,0,0,-0.009277344,0.002441406,1.010742,0.5717773,-0.9326172,-2.94043
615,0,0.0625,-0.1875,0.01416016,0.002441406,1.010742,0.5898438,-0.9428711,-2.929688
616,0.125,-0.0625,0,-0.005371094,-0.0009765625,0.9990234,0.5898438,-0.9428711,-2.929688
620,0,-0.0625,-0.125,0.001953125,0.03027344,1.006836,0.5898438,-0.9428711,-2.929688
621,0,-0.1875,0,0.02197266,0.002441406,0.9750977,0.5791016,-0.9379883,-2.94043
625,0.0625,0,0.0625,0.001953125,0.01025391,0.9873047,0.5791016,-0.9379883,-2.94043
626,0.0625,0.125,0.0625,0.01416016,0.002441406,1.010742,0.5791016,-0.9379883,-2.94043
630,0.0625,-0.0625,0,-0.001464844,0.02246094,0.9990234,0.5869141,-0.9379883,-2.929688
631,0,0.0625,0.0625,0.001953125,0.01025391,0.9990234,0.5869141,-0.9379883,-2.929688
635,0,0.1875,0,0.01806641,0.002441406,0.9750977,0.5869141,-0.9379883,-2.929688
636,-0.0625,0.125,0,0.01025391,0.01416016,0.9750977,0.5869141,-0.9379883,-2.929688
640,0.0625,0,0.125,0.01416016,0.03027344,0.9833984,0.5766602,-0.9453125,-2.94043
641,0,0.0625,0,-0.02099609,0.006347656,0.9951172,0.5766602,-0.9453125,-2.94043
645,0.1875,-0.0625,0,0.001953125,0.01416016,0.9833984,0.5766602,-0.9453125,-2.94043
646,-0.1875,0,0.0625,0.02587891,0.01025391,1.010742,0.5898438,-0.9404297,-2.935059
650,0,0,0,0.01025391,0.01855469,0.9790039,0.5898438,-0.9404297,-2.935059
651,0.0625,0.0625,0.0625,0.005859375,0.006347656,0.9990234,0.5898438,-0.9404297,-2.935059
655,0.125,0.125,0,-0.009277344,0.006347656,1.018555,0.5898438,-0.9404297,-2.935059
656,0,0,0,0.01416016,0.01416016,0.9951172,0.5898438,-0.9404297,-2.935059
660,-0.125,0,0,0.01806641,0.01025391,1.00293,0.5898438,-0.9404297,-2.935059
661,0.0625,0,-0.0625,0.01025391,0.02246094,0.9990234,0.5898438,-0.9404297,-2.935059
665,0,0.125,0,-0.001464844,0.02636719,1.00293,0.5791016,-0.9453125,-2.935059
666,0,0,0.0625,0.01416016,0.01025391,0.9912109,0.5791016,-0.9453125,-2.935059
670,0.0625,0.125,0,0.01025391,-0.0009765625,0.9951172,0.5791016,-0.9453125,-2.935059
671,-0.0625,-0.0625,-0.125,0.01025391,0.01025391,1.00293,0.5844727,-0.9326172,-2.932617
675,0,-0.0625,0,0.01025391,0.03027344,0.9990234,0.5844727,-0.9326172,-2.932617
676,0,-0.0625,-0.1875,0.01025391,0.002441406,1.010742,0.5844727,-0.9326172,-2.932617
680,0.0625,0,0,0.01806641,-0.005371094,0.9951172,0.5844727,-0.9326172,-2.932617
681,0.125,0,-0.0625,0.01025391,0.006347656,1.00293,0.5820313,-0.9404297,-2.9375
685,-0.0625,0,-0.0625,0.01806641,0.03857422,1.006836,0.5820313,-0.9404297,-2.9375
686,0.0625,0,0,0.01416016,0.006347656,1.018555,0.5820313,-0.9404297,-2.9375
690,0.125,0.125,0.1875,0.005859375,-0.005371094,0.9951172,0.5898438,-0.925293,-2.927246
691,0,0,0,0.02197266,0.01855469,0.9951172,0.5898438,-0.925293,-2.927246
695,0,0.25,-0.0625,0.01025391,-0.009277344,1.018555,0.5898438,-0.925293,-2.927246
696,0.125,0.0625,0,0.01416016,0.02246094,0.9833984,0.5844727,-0.9379883,-2.932617
700,0.125,0,0.0625,0.01806641,0.002441406,1.00293,0.5844727,-0.9379883,-2.932617
701,0,0,0,0.01416016,0.01025391,0.9990234,0.5844727,-0.9379883,-2.932617
705,0,0.1875,-0.0625,0.01416016,0.02636719,1.014648,0.5844727,-0.9379883,-2.932617
706,0.125,0,0.0625,-0.001464844,0.01025391,1.00293,0.5844727,-0.9350586,-2.94043
710,-0.0625,0,-0.0625,-0.001464844,-0.01318359,0.9912109,0.5844727,-0.9350586,-2.94043
711,0.1875,0.1875,-0.0625,0.01025391,0.002441406,0.9833984,0.5844727,-0.9350586,-2.94043
715,0.0625,0,-0.0625,-0.009277344,0.006347656,0.9951172,0.5869141,-0.9379883,-2.935059
716,0,0.125,-0.125,0.01416016,0.01025391,1.006836,0.5869141,-0.9379883,-2.935059
720,0,0,-0.0625,0.03369141,0.01025391,0.9873047,0.5869141,-0.9379883,-2.935059
721,0.125,-0.125,-0.125,0.01416016,0.02246094,1.014648,0.5898438,-0.9301758,-2.9375
725,0.0625,0,0.0625,-0.001464844,-0.0009765625,0.9873047,0.5898438,-0.9301758,-2.9375
726,0.125,0.1875,0.1875,0.01806641,0.006347656,1.00293,0.5898438,-0.9301758,-2.9375
730,0,0,-0.125,0.01806641,0.01025391,0.9912109,0.5898438,-0.9301758,-2.9375
731,0,0.0625,0,0.02197266,0.002441406,1.010742,0.5898438,-0.9404297,-2.929688
735,0.1875,-0.125,0.125,0.01806641,0.01416016,1.018555,0.5898438,-0.9404297,-2.929688
736,0.25,0,-0.125,0.01806641,0.01025391,1.014648,0.5898438,-0.9404297,-2.929688
740,0,0,0,0.005859375,0.03027344,0.9990234,0.5898438,-0.9350586,-2.932617
741,0.125,0,0,0.01416016,0.01025391,0.9912109,0.5898438,-0.9350586,-2.932617
745,0,0.125,0,-0.005371094,0.01855469,0.9990234,0.5898438,-0.9350586,-2.932617
746,0,0,0.0625,0.01025391,0.01025391,0.9873047,0.5898438,-0.9350586,-2.932617
750,0.1875,0.0625,0,-0.001464844,0.006347656,1.014648,0.5898438,-0.9350586,-2.932617
751,0,-0.0625,0,0.001953125,0.02246094,1.010742,0.5898438,-0.9350586,-2.932617
755,0.0625,0,0,0.01025391,0.002441406,1.00293,0.5898438,-0.9350586,-2.932617
758,-0.0625,0,-0.0625,0.001953125,0.01025391,1.006836,0.5742188,-0.9379883,-2.932617
762,0.125,0,0,0.01806641,0.01855469,0.9951172,0.5742188,-0.9379883,-2.932617
763,0,0,-0.0625,-0.01318359,0.002441406,1.00293,0.5742188,-0.9379883,-2.932617
767,0,-0.0625,-0.1875,-0.005371094,-0.005371094,0.9750977,0.5869141,-0.9428711,-2.927246
768,0.125,-0.125,-0.125,0.01806641,0.01025391,0.9833984,0.5869141,-0.9428711,-2.927246
772,0.0625,0.125,0,0.01416016,0.01855469,0.9790039,0.5869141,-0.9428711,-2.927246
773,0.125,0,-0.0625,0.005859375,0.02246094,0.9833984,0.5869141,-0.9428711,-2.927246
777,0.0625,0,-0.0625,0.001953125,0.006347656,1.006836,0.5844727,-0.9350586,-2.945313
778,0,0,0,0.01416016,0.01025391,0.9990234,0.5844727,-0.9350586,-2.945313
782,0.0625,0.125,0,0.01025391,-0.005371094,0.9951172,0.5844727,-0.9350586,-2.945313
783,-0.0625,0.0625,0.0625,0.01025391,0.01416016,0.9951172,0.5766602,-0.9404297,-2.927246
787,0,-0.0625,0.1875,0.01806641,0.02246094,0.9912109,0.5766602,-0.9404297,-2.927246
788,0.125,-0.0625,0.125,0.01806641,0.002441406,1.010742,0.5766602,-0.9404297,-2.927246
792,0.0625,0.125,0,0.01025391,0.002441406,0.9990234,0.5869141,-0.9379883,-2.935059
793,0,0,-0.0625,0.01416016,0.01025391,1.00293,0.5869141,-0.9379883,-2.935059
797,0,0,0,0.01806641,0.01025391,0.9951172,0.5869141,-0.9379883,-2.935059
798,0.125,0,-0.125,0.01416016,0.02246094,0.9833984,0.5869141,-0.9379883,-2.935059
802,0,0.0625,0.125,0.02587891,0.002441406,1.018555,0.5898438,-0.9379883,-2.927246
803,0.0625,0,0.125,0.01416016,0.01025391,0.9990234,0.5898438,-0.9379883,-2.927246
807,-0.125,0.125,0,0.02587891,0.002441406,0.9990234,0.5898438,-0.9379883,-2.927246
808,0,0.125,0.0625,0.01806641,0.01855469,0.9873047,0.5820313,-0.9379883,-2.932617
812,-0.0625,0,0,0.001953125,-0.0009765625,0.9873047,0.5820313,-0.9379883,-2.932617
813,-0.0625,0.0625,0.3125,-0.001464844,0.01416016,0.9833984,0.5820313,-0.9379883,-2.932617
817,0,0.1875,0,0.02587891,0.01416016,1.00293,0.5742188,-0.9350586,-2.929688
818,-0.0625,0,-0.125,0.01416016,0.002441406,0.9951172,0.5742188,-0.9350586,-2.929688
822,0,0,0,0.01025391,0.01416016,1.010742,0.5742188,-0.9350586,-2.929688
823,0.25,0,-0.0625,0.02197266,0.006347656,0.9873047,0.5742188,-0.9350586,-2.929688
827,0,0,0,-0.005371094,0.01855469,0.9990234,0.5820313,-0.9404297,-2.924805
828,0,0.125,-0.0625,0.02197266,0.002441406,0.9990234,0.5820313,-0.9404297,-2.924805
832,0.0625,-0.0625,0,0.02587891,-0.009277344,1.026367,0.5820313,-0.9404297,-2.924805
833,0,0.0625,0.0625,-0.001464844,0.01416016,1.010742,0.5898438,-0.9404297,-2.927246
837,0.0625,-0.0625,0.1875,0.005859375,0.01025391,0.9951172,0.5898438,-0.9404297,-2.927246
838,0,0,0,0.01025391,0.01855469,0.9790039,0.5898438,-0.9404297,-2.927246
842,0.1875,0.125,0.0625,0.01025391,0.02246094,0.9990234,0.5898438,-0.9404297,-2.927246
843,0,0.0625,0,0.01025391,-0.01318359,1.026367,0.5898438,-0.9404297,-2.927246
847,0,0.0625,0,0.01025391,0.01416016,0.9873047,0.5898438,-0.9404297,-2.927246
848,-0.0625,0.125,0,0.02978516,-0.0009765625,1.014648,0.5898438,-0.9404297,-2.927246
852,0.0625,-0.0625,0,0.01416016,0.01025391,0.9951172,0.5976563,-0.9301758,-2.929688
853,0.125,0,-0.125,0.001953125,-0.005371094,1.00293,0.5976563,-0.9301758,-2.929688
857,0.0625,0.125,0.125,-0.02099609,0.01025391,1.010742,0.5976563,-0.9301758,-2.929688
858,0,0.0625,0,0.01416016,0.01855469,0.9833984,0.5820313,-0.9428711,-2.927246
862,0,-0.0625,0,0.02197266,0.01416016,0.9990234,0.5820313,-0.9428711,-2.927246
863,0,-0.1875,-0.0625,0.001953125,0.02246094,0.9990234,0.5820313,-0.9428711,-2.927246
867,0.125,0.125,0,0.02197266,0.01025391,0.9951172,0.5820313,-0.9428711,-2.927246
868,0.3125,0.0625,0,0.001953125,0.002441406,0.9951172,0.5820313,-0.9453125,-2.927246
872,0.0625,0,0.0625,0.01025391,0.01025391,0.9990234,0.5820313,-0.9453125,-2.927246
873,0,0,0.0625,0.01025391,0.01025391,0.9912109,0.5820313,-0.9453125,-2.927246
877,0.1875,0,-0.3125,0.005859375,-0.005371094,1.010742,0.5844727,-0.9326172,-2.932617
878,0,0.0625,0.0625,0.001953125,0.02636719,1.010742,0.5844727,-0.9326172,-2.932617
882,0,0.1875,-0.125,0.001953125,0.002441406,1.010742,0.5844727,-0.9326172,-2.932617
883,0,0,0,0.02587891,-0.009277344,1.014648,0.5688477,-0.9428711,-2.924805
887,0.0625,0.0625,0.1875,0.01025391,0.01025391,0.9990234,0.5688477,-0.9428711,-2.924805
888,0,-0.1875,-0.1875,0.001953125,0.002441406,1.00293,0.5688477,-0.9428711,-2.924805
892,0,0,0.125,0.02587891,-0.0009765625,0.9912109,0.5688477,-0.9428711,-2.924805
893,0.125,0,0,0.01025391,0.002441406,1.014648,0.5791016,-0.9428711,-2.9375
897,0.125,0,0,-0.005371094,0.01416016,0.9873047,0.5791016,-0.9428711,-2.9375
898,0.125,0.125,-0.125,-0.001464844,-0.005371094,0.9951172,0.5791016,-0.9428711,-2.9375
902,0.0625,0,0,0.01025391,0.01025391,0.9990234,0.5898438,-0.9428711,-2.927246
903,0.25,-0.0625,0,0.01806641,0.01416016,1.010742,0.5898438,-0.9428711,-2.927246
907,0,0,0.1875,-0.009277344,0.03417969,0.9873047,0.5898438,-0.9428711,-2.927246
908,0,0.1875,0,0.01025391,0.002441406,0.9990234,0.5766602,-0.9453125,-2.924805
912,0,0,-0.0625,0.001953125,0.006347656,1.010742,0.5766602,-0.9453125,-2.924805
913,0.125,-0.1875,0,0.01025391,0.03027344,0.9951172,0.5766602,-0.9453125,-2.924805
917,0.0625,-0.0625,-0.125,0.01025391,0.01855469,0.9951172,0.5766602,-0.9453125,-2.924805
919,0,-0.0625,0,-0.005371094,0.006347656,1.010742,0.5869141,-0.9379883,-2.927246
923,0.0625,0.0625,0,0.005859375,0.002441406,0.9990234,0.5869141,-0.9379883,-2.927246
924,0.125,0.125,0.0625,-0.001464844,0.01025391,1.006836,0.5869141,-0.9379883,-2.927246
928,0,0,-0.0625,0.005859375,0.01855469,1.00293,0.5869141,-0.9477539,-2.935059
929,0,0,0,0.005859375,0.002441406,0.9873047,0.5869141,-0.9477539,-2.935059
933,0.0625,0,0.0625,0.01416016,0.002441406,0.9951172,0.5869141,-0.9477539,-2.935059
934,0.25,0,0,0.01025391,0.01025391,1.00293,0.5869141,-0.9477539,-2.935059
938,0,0.0625,0,0.001953125,-0.005371094,0.9951172,0.5869141,-0.9477539,-2.935059
939,0.125,0.1875,0,0.01025391,0.01025391,1.006836,0.5869141,-0.9477539,-2.935059
943,0,0.25,0,0.01806641,0.006347656,1.010742,0.5869141,-0.9477539,-2.935059
944,0.0625,0.125,0.0625,-0.009277344,0.01416016,0.9990234,0.5791016,-0.9350586,-2.929688
948,0,0,0,0.01025391,0.006347656,0.9912109,0.5791016,-0.9350586,-2.929688
949,0,0.0625,0.125,0.01025391,0.006347656,1.00293,0.5791016,-0.9350586,-2.929688
953,0.125,0,0.125,0.01416016,0.006347656,0.9990234,0.5869141,-0.9404297,-2.9375
954,-0.0625,0.0625,-0.125,-0.001464844,0.01416016,1.00293,0.5869141,-0.9404297,-2.9375
958,0.1875,-0.25,0,-0.005371094,0.002441406,0.9990234,0.5869141,-0.9404297,-2.9375
959,0,0.0625,0,0.02587891,-0.005371094,0.9912109,0.5869141,-0.9404297,-2.9375
963,0.125,0.125,0,0.01025391,-0.005371094,1.010742,0.5869141,-0.9301758,-2.922363
964,0.0625,0,0,0.01025391,0.01855469,0.9912109,0.5869141,-0.9301758,-2.922363
968,0.0625,-0.1875,0.0625,0.01025391,0.002441406,1.022461,0.5869141,-0.9301758,-2.922363
969,-0.125,0,0,0.01416016,0.02246094,1.014648,0.5869141,-0.9326172,-2.929688
973,0,0.0625,-0.0625,-0.001464844,-0.005371094,0.9833984,0.5869141,-0.9326172,-2.929688
974,-0.125,0,-0.0625,0.001953125,-0.009277344,0.9790039,0.5869141,-0.9326172,-2.929688
978,0,-0.125,-0.125,-0.005371094,0.01025391,0.9990234,0.5820313,-0.9404297,-2.932617
979,0.1875,0.0625,-0.0625,0.01025391,0.02246094,0.9912109,0.5820313,-0.9404297,-2.932617
983,0,0.125,-0.125,0.005859375,-0.0009765625,0.9873047,0.5820313,-0.9404297,-2.932617
984,0,0.0625,0.0625,0.005859375,0.006347656,0.9912109,0.5820313,-0.9404297,-2.932617
988,0,-0.125,0,0.005859375,0.006347656,1.014648,0.5844727,-0.9404297,-2.927246
989,0,-0.1875,-0.0625,0.005859375,0.01025391,0.9990234,0.5844727,-0.9404297,-2.927246
993,-0.0625,0.0625,-0.0625,0.02197266,0.01025391,1.00293,0.5844727,-0.9404297,-2.927246
994,0,-0.1875,0,0.02587891,0.01025391,1.010742,0.5869141,-0.9350586,-2.929688
998,0.125,0.1875,0,-0.009277344,0.01416016,1.018555,0.5869141,-0.9350586,-2.929688
999,0.125,0,0.0625,-0.001464844,0.02636719,0.9951172,0.5869141,-0.9350586,-2.929688
1003,0.125,0.0625,0.0625,0.001953125,0.006347656,0.9750977,0.5688477,-0.9477539,-2.94043
1004,-0.125,0.0625,0,0.02587891,0.01025391,1.006836,0.5688477,-0.9477539,-2.94043
1008,0,0.0625,-0.0625,0.01025391,0.002441406,1.010742,0.5688477,-0.9477539,-2.94043
1009,0,0,0.0625,0.02587891,-0.005371094,1.00293,0.5688477,-0.9477539,-2.94043
1013,0.25,0,0.1875,0.001953125,0.02246094,0.9790039,0.5742188,-0.9501953,-2.927246
1014,0.1875,0.0625,0.0625,0.02587891,0.01025391,0.9990234,0.5742188,-0.9501953,-2.927246
1018,-0.0625,0,-0.0625,-0.01318359,0.006347656,1.010742,0.5742188,-0.9501953,-2.927246
1019,0.1875,0.0625,-0.0625,0.005859375,0.03027344,0.9873047,0.5844727,-0.9277344,-2.932617
1023,0.0625,0,0.125,0.01806641,0.02246094,1.010742,0.5844727,-0.9277344,-2.932617
1024,0,0,0.0625,0.01416016,0.01025391,0.9990234,0.5844727,-0.9277344,-2.932617
1028,0,-0.0625,0,0.01416016,0.006347656,1.006836,0.5844727,-0.9277344,-2.932617
1029,0.125,0.1875,0,0.01025391,0.002441406,0.9990234,0.5844727,-0.9277344,-2.932617
1033,0.0625,-0.0625,0,0.001953125,0.01025391,1.006836,0.5844727,-0.9277344,-2.932617
1034,0.125,0,-0.125,0.01025391,0.01025391,0.9912109,0.5844727,-0.9277344,-2.932617
1038,-0.0625,-0.125,0,0.01416016,0.01025391,1.022461,0.5844727,-0.9379883,-2.9375
1039,0.0625,0.25,0,0.005859375,0.01025391,1.018555,0.5844727,-0.9379883,-2.9375
1043,0,0,0,0.01025391,0.02246094,0.9951172,0.5844727,-0.9379883,-2.9375
1044,0,0,-0.0625,0.005859375,-0.005371094,0.9912109,0.5898438,-0.9453125,-2.935059
1048,0.125,0.0625,0.125,0.01025391,0.04248047,0.9790039,0.5898438,-0.9453125,-2.935059
1049,0,0.0625,0,0.03369141,0.002441406,1.018555,0.5898438,-0.9453125,-2.935059
1053,0.0625,0,0,0.001953125,0.01416016,0.9873047,0.5898438,-0.9453125,-2.935059
1054,0.1875,0,0.25,0.005859375,0.01416016,0.9990234,0.5820313,-0.9301758,-2.927246
1058,0.25,0,0.0625,0.01025391,0.01855469,1.006836,0.5820313,-0.9301758,-2.927246
1059,0.125,0,-0.0625,0.01416016,0.002441406,1.010742,0.5820313,-0.9301758,-2.927246
1063,0.0625,0,-0.0625,-0.01708984,0.01416016,1.006836,0.5820313,-0.9428711,-2.927246
1064,0.0625,0.0625,0.0625,0.01416016,0.01025391,0.9912109,0.5820313,-0.9428711,-2.927246
1068,0,-0.3125,-0.125,0.01025391,0.006347656,0.9951172,0.5820313,-0.9428711,-2.927246
1069,0.125,0,0.0625,0.01025391,0.006347656,0.9833984,0.5844727,-0.9379883,-2.927246
1073,0.1875,0.0625,0,0.01806641,0.01025391,1.010742,0.5844727,-0.9379883,-2.927246
1074,0,0.1875,0,0.01416016,0.03027344,1.014648,0.5844727,-0.9379883,-2.927246
1078,-0.125,0.1875,0,0.01416016,0.002441406,1.010742,0.5844727,-0.9379883,-2.927246
1080,0,0.1875,0,0.005859375,0.01855469,0.9990234,0.5820313,-0.9379883,-2.942871
1084,0.1875,0.0625,-0.0625,0.01025391,0.006347656,1.006836,0.5820313,-0.9379883,-2.942871
1085,0.0625,0,-0.0625,0.01025391,-0.005371094,0.9951172,0.5820313,-0.9379883,-2.942871
1089,0,-0.0625,-0.0625,0.01416016,0.01416016,0.9873047,0.5869141,-0.9379883,-2.932617
1090,0,0,0,0.02197266,0.01025391,0.9951172,0.5869141,-0.9379883,-2.932617
1094,0,-0.125,0,0.01025391,0.01855469,0.9990234,0.5869141,-0.9379883,-2.932617
1095,0.125,0.1875,0,0.02587891,0.02246094,0.9990234,0.5869141,-0.9379883,-2.922363
1099,0,0.0625,0,0.01025391,0.01855469,0.9990234,0.5869141,-0.9379883,-2.922363
1100,0.0625,0.0625,0,-0.005371094,0.03417969,0.9951172,0.5869141,-0.9379883,-2.922363
1104,0,0.0625,-0.125,0.01806641,0.01025391,1.010742,0.5869141,-0.9379883,-2.922363
1105,0,-0.0625,0.125,0.01416016,0.002441406,1.010742,0.5844727,-0.9379883,-2.922363
1109,0.125,0,0.0625,-0.001464844,0.01025391,0.9912109,0.5844727,-0.9379883,-2.922363
1110,0,0.0625,0.125,-0.01318359,0.002441406,1.010742,0.5844727,-0.9379883,-2.922363
1114,0,0.0625,0.0625,0.02587891,0.006347656,0.9951172,0.5869141,-0.9428711,-2.929688
1115,0,0.0625,-0.0625,0.01025391,0.01855469,0.9912109,0.5869141,-0.9428711,-2.929688
1119,0,-0.125,0.0625,0.001953125,-0.005371094,1.030273,0.5869141,-0.9428711,-2.929688
1120,-0.0625,0.125,0,-0.001464844,0.002441406,0.9833984,0.5869141,-0.9428711,-2.929688
1124,0,0,0,0.005859375,0.006347656,0.9951172,0.5869141,-0.9428711,-2.929688
1125,0.0625,0.0625,0.0625,0.01025391,-0.0009765625,1.010742,0.5869141,-0.9428711,-2.929688
1129,-0.0625,0,-0.125,-0.001464844,0.01416016,0.9990234,0.5869141,-0.9428711,-2.929688
1130,0.0625,0.125,0,0.01806641,0.01025391,1.018555,0.5898438,-0.9501953,-2.927246
1134,-0.0625,0,-0.3125,0.01025391,0.01025391,0.9873047,0.5898438,-0.9501953,-2.927246
1135,0,0,0.125,0.01025391,0.01416016,1.018555,0.5898438,-0.9501953,-2.927246
1139,0.25,0.0625,0.0625,0.001953125,0.006347656,0.9990234,0.5947266,-0.9326172,-2.9375
1140,0.0625,0,-0.0625,0.01025391,0.01025391,1.010742,0.5947266,-0.9326172,-2.9375
1144,0,0.125,0,0.01806641,0.01025391,1.018555,0.5947266,-0.9326172,-2.9375
1145,0,0.0625,0,0.005859375,0.02246094,1.010742,0.5947266,-0.9326172,-2.9375
1149,0.1875,0,0.0625,0.01025391,0.02636719,0.9873047,0.5820313,-0.9453125,-2.924805
1150,0.0625,0.25,0.0625,0.01025391,0.01855469,1.014648,0.5820313,-0.9453125,-2.924805
1154,0.0625,0,-0.0625,-0.005371094,0.002441406,0.9990234,0.5820313,-0.9453125,-2.924805
1155,0,0.125,0,0.01025391,0.02246094,0.9990234,0.5844727,-0.9326172,-2.94043
1159,0.125,0,-0.0625,0.01806641,0.02636719,1.030273,0.5844727,-0.9326172,-2.94043
1160,0,0,0.0625,0.01416016,0.03417969,1.00293,0.5844727,-0.9326172,-2.94043
1164,0,0.1875,0.0625,-0.005371094,0.01855469,0.9990234,0.5869141,-0.9379883,-2.935059
1165,0.25,0.0625,0,-0.001464844,0.03027344,0.9833984,0.5869141,-0.9379883,-2.935059
1169,0.125,0,-0.0625,0.01025391,0.006347656,1.018555,0.5869141,-0.9379883,-2.935059
1170,0.125,0.125,0,0.01025391,-0.02099609,1.00293,0.5869141,-0.9379883,-2.935059
1174,0.0625,0.0625,0,0.03369141,0.01025391,0.9790039,0.5869141,-0.9379883,-2.932617
1175,-0.0625,0,0,0.02197266,0.03027344,1.00293,0.5869141,-0.9379883,-2.932617
1179,0,0,0,0.02978516,0.03027344,0.9951172,0.5869141,-0.9379883,-2.932617
1180,0.1875,0,0,0.01416016,0.01025391,0.9873047,0.5791016,-0.9326172,-2.935059
1184,-0.0625,0.0625,0,0.01025391,0.01025391,1.010742,0.5791016,-0.9326172,-2.935059
1185,0,-0.0625,-0.0625,0.01416016,0.03027344,1.00293,0.5791016,-0.9326172,-2.935059
1189,0,0,0.125,0.005859375,0.006347656,0.9990234,0.5947266,-0.9550781,-2.924805
1190,0.125,-0.0625,0.0625,-0.001464844,0.01025391,1.010742,0.5947266,-0.9550781,-2.924805
1194,0.0625,0,-0.0625,0.005859375,0.006347656,0.9990234,0.5947266,-0.9550781,-2.924805
1195,-0.125,0.125,-0.0625,0.02587891,0.01416016,1.006836,0.5947266,-0.9550781,-2.924805
1199,0,0.0625,0.0625,0.01806641,0.006347656,1.018555,0.5922852,-0.9350586,-2.929688
1200,0.0625,0.125,0,0.01025391,0.01416016,0.9990234,0.5922852,-0.9350586,-2.929688
1204,0.0625,0,0.0625,0.01025391,0.01855469,0.9873047,0.5922852,-0.9350586,-2.929688
1205,0.1875,0.0625,0,0.01806641,0.006347656,1.014648,0.5844727,-0.9379883,-2.927246
1209,-0.125,0,-0.125,-0.001464844,0.006347656,1.010742,0.5844727,-0.9379883,-2.927246
1210,0,-0.0625,-0.0625,0.02197266,0.01025391,0.9750977,0.5844727,-0.9379883,-2.927246
1214,-0.0625,0.125,-0.0625,-0.005371094,0.02636719,1.018555,0.5844727,-0.9379883,-2.927246
1215,0,0,-0.0625,0.01025391,0.01416016,1.010742,0.5844727,-0.9379883,-2.927246
1219,0,0,-0.0625,0.01416016,0.002441406,1.00293,0.5844727,-0.9379883,-2.927246
1220,0,-0.0625,0,-0.005371094,0.01416016,1.018555,0.5844727,-0.9379883,-2.927246
1224,-0.125,-0.125,0,0.001953125,0.02636719,0.9951172,0.5869141,-0.925293,-2.932617
1225,0,0.0625,0,0.01806641,0.006347656,0.9951172,0.5869141,-0.925293,-2.932617
1229,0,0,0,0.02978516,0.002441406,1.00293,0.5869141,-0.925293,-2.932617
1230,0,0.0625,0,0.01025391,0.006347656,0.9951172,0.5898438,-0.9301758,-2.929688
1234,0,-0.0625,0,-0.001464844,0.01025391,0.9951172,0.5898438,-0.9301758,-2.929688
1235,0.0625,-0.0625,-0.1875,-0.01318359,0.01416016,1.010742,0.5898438,-0.9301758,-2.929688
1239,-0.0625,-0.125,0,0.01025391,0.01025391,1.014648,0.5898438,-0.9301758,-2.929688
1241,0.0625,0.125,0.0625,0.01025391,0.01025391,1.010742,0.5869141,-0.9477539,-2.929688
1245,0,0,0.125,0.01025391,0.02246094,0.9912109,0.5869141,-0.9477539,-2.929688
1246,0,0.125,0,0.01806641,-0.005371094,0.9990234,0.5869141,-0.9477539,-2.929688
1250,0,0,-0.1875,-0.001464844,0.01025391,0.9750977,0.5791016,-0.9326172,-2.922363
1251,0,0,0,0.01806641,0.03417969,1.010742,0.5791016,-0.9326172,-2.922363
1255,0.0625,0,0,0.01806641,0.02246094,1.006836,0.5791016,-0.9326172,-2.922363
1256,-0.0625,0.25,0,0.02587891,-0.005371094,0.9990234,0.5898438,-0.9379883,-2.927246
1260,-0.125,-0.125,-0.125,-0.001464844,0.01855469,1.018555,0.5898438,-0.9379883,-2.927246
1261,0,0.1875,-0.125,0.005859375,0.01025391,0.9990234,0.5898438,-0.9379883,-2.927246
1265,0,0.125,0,0.01025391,0.01416016,1.026367,0.5898438,-0.9379883,-2.927246
1266,0.0625,0,0,-0.001464844,-0.009277344,0.9951172,0.5898438,-0.9379883,-2.924805
1270,0.0625,0,-0.0625,-0.009277344,0.01416016,1.010742,0.5898438,-0.9379883,-2.924805
1271,0,0,-0.0625,0.001953125,0.01416016,1.010742,0.5898438,-0.9379883,-2.924805
1275,0,0,0.25,0.02587891,0.01025391,0.9951172,0.5766602,-0.9301758,-2.935059
1276,0,0,-0.125,0.01025391,-0.0009765625,1.010742,0.5766602,-0.9301758,-2.935059
1280,0.25,-0.125,0,0.005859375,0.01025391,0.9990234,0.5766602,-0.9301758,-2.935059
1281,0,0.1875,0.0625,0.02978516,0.02246094,0.9951172,0.5742188,-0.9301758,-2.942871
1285,0.0625,0,0,-0.001464844,-0.0009765625,0.9951172,0.5742188,-0.9301758,-2.942871
1286,0,0,-0.0625,0.01025391,0.01855469,0.9951172,0.5742188,-0.9301758,-2.942871
1290,0,-0.1875,0,-0.009277344,0.01025391,0.9990234,0.5742188,-0.9301758,-2.942871
1291,0.125,0,0,-0.009277344,0.002441406,0.9912109,0.5898438,-0.9428711,-2.929688
1295,0,0,-0.25,0.01025391,0.002441406,1.00293,0.5898438,-0.9428711,-2.929688
1296,0,0.125,0,0.01025391,0.02636719,1.010742,0.5898438,-0.9428711,-2.929688
1300,-0.125,0,0,-0.001464844,-0.005371094,1.00293,0.5898438,-0.9477539,-2.927246
1301,0.3125,0,0.0625,0.01025391,0.02246094,0.9951172,0.5898438,-0.9477539,-2.927246
1305,0,0.0625,0.0625,0.01025391,0.006347656,1.010742,0.5898438,-0.9477539,-2.927246
1306,0,0.0625,-0.25,0.01806641,0.006347656,0.9833984,0.5898438,-0.9477539,-2.927246
1310,0,0.1875,0.125,-0.009277344,-0.0009765625,0.9912109,0.5898438,-0.9477539,-2.927246
1311,0,0,0,0.01025391,0.01416016,1.00293,0.5898438,-0.9477539,-2.927246
1315,0,0.1875,0,-0.009277344,0.01025391,0.9951172,0.5898438,-0.9477539,-2.927246
1316,0,0,0,0.01025391,0.03027344,0.9912109,0.5820313,-0.9404297,-2.929688
1320,-0.0625,0,0,0.01806641,0.03417969,0.9951172,0.5820313,-0.9404297,-2.929688
1321,0.25,-0.0625,-0.0625,0.005859375,0.006347656,0.9951172,0.5820313,-0.9404297,-2.929688
1325,0,0.1875,-0.0625,0.005859375,0.01855469,1.00293,0.5869141,-0.9477539,-2.924805
1326,0,0,0,0.01025391,0.04248047,0.9990234,0.5869141,-0.9477539,-2.924805
1330,0.0625,-0.0625,0,0.01025391,0.03417969,0.9750977,0.5869141,-0.9477539,-2.924805
1331,0.0625,0,0,-0.009277344,0.002441406,0.9912109,0.5869141,-0.9477539,-2.924805
1335,0,-0.125,0,0.02587891,0.01855469,1.010742,0.5898438,-0.9477539,-2.932617
1336,0.125,0,-0.0625,0.01025391,0.01025391,1.010742,0.5898438,-0.9477539,-2.932617
1340,0.125,0.125,0,-0.005371094,0.02636719,1.010742,0.5898438,-0.9477539,-2.932617
1341,0.125,0.0625,-0.0625,0.001953125,0.01025391,0.9912109,0.5869141,-0.9350586,-2.929688
1345,0,0,-0.1875,0.005859375,0.002441406,1.014648,0.5869141,-0.9350586,-2.929688
1346,0.125,-0.125,0,0.01025391,0.01025391,0.9990234,0.5869141,-0.9350586,-2.929688
1350,0.0625,0,0,0.001953125,0.02246094,1.010742,0.5898438,-0.9428711,-2.929688
1351,0.0625,0,0.0625,0.01025391,0.01416016,0.9833984,0.5898438,-0.9428711,-2.929688
1355,0.125,0,0.125,-0.009277344,0.01855469,1.010742,0.5898438,-0.9428711,-2.929688
1356,0.1875,0,0,0.01025391,0.01025391,1.018555,0.5898438,-0.9428711,-2.929688
1360,-0.0625,0.0625,-0.0625,0.005859375,0.02636719,0.9990234,0.5869141,-0.9404297,-2.929688
1361,-0.125,0.0625,0.0625,0.01025391,0.01025391,0.9873047,0.5869141,-0.9404297,-2.929688
1365,0.25,-0.125,-0.1875,-0.005371094,0.01025391,1.010742,0.5869141,-0.9404297,-2.929688
1366,-0.0625,0,0,0.01025391,0.006347656,0.9951172,0.5844727,-0.9575195,-2.929688
1370,0,0,0,0.01416016,0.02636719,1.00293,0.5844727,-0.9575195,-2.929688
1371,0.125,-0.0625,0,0.01025391,0.002441406,0.9990234,0.5844727,-0.9575195,-2.929688
1375,0,0.0625,0,0.01025391,-0.005371094,0.9990234,0.5947266,-0.9453125,-2.94043
1376,-0.0625,0,0.0625,0.02978516,0.01855469,1.00293,0.5947266,-0.9453125,-2.94043
1380,0.1875,-0.25,0,0.01806641,0.002441406,0.9951172,0.5947266,-0.9453125,-2.94043
1381,0.1875,0,0.125,0.01806641,0.02246094,0.9990234,0.5947266,-0.9453125,-2.94043
1385,0.0625,0.125,0,0.02587891,-0.005371094,1.010742,0.5869141,-0.9350586,-2.9375
1386,0.0625,0,0,0.02587891,0.01416016,0.9990234,0.5869141,-0.9350586,-2.9375
1390,0,0.125,0.125,0.005859375,0.01416016,0.9750977,0.5869141,-0.9350586,-2.9375
1391,0,0.125,-0.125,0.01025391,0.03027344,1.006836,0.5820313,-0.9277344,-2.932617
1395,0.1875,0.0625,-0.25,0.02197266,-0.0009765625,0.9990234,0.5820313,-0.9277344,-2.932617
1396,0,0.125,0,0.005859375,0.006347656,0.9990234,0.5820313,-0.9277344,-2.932617
1400,0,0,-0.25,0.001953125,-0.005371094,1.010742,0.5820313,-0.9277344,-2.932617
1403,0,0,-0.0625,0.01025391,0.002441406,0.9951172,0.5820313,-0.9277344,-2.932617
1407,0.125,0.0625,0.25,0.01416016,0.002441406,0.9951172,0.5820313,-0.9277344,-2.932617
1408,0,0.125,0.0625,0.02587891,0.01025391,1.010742,0.5820313,-0.9277344,-2.932617
1412,0.25,0.1875,0.0625,0.005859375,0.01025391,0.9951172,0.5820313,-0.9404297,-2.927246
1413,0,0,-0.0625,0.01025391,0.006347656,0.9990234,0.5820313,-0.9404297,-2.927246
1417,0.0625,0.0625,0,0.005859375,0.01025391,0.9833984,0.5820313,-0.9404297,-2.927246
1418,0.0625,-0.125,-0.0625,0.005859375,-0.005371094,0.9873047,0.5820313,-0.9404297,-2.932617
1422,0.0625,0,0,-0.01708984,0.01025391,1.010742,0.5820313,-0.9404297,-2.932617
1423,0,0.0625,0,-0.001464844,0.006347656,0.9990234,0.5820313,-0.9404297,-2.932617
1427,0.0625,-0.0625,-0.125,-0.001464844,0.01025391,1.010742,0.5820313,-0.9404297,-2.932617
1428,0,0.1875,0,0.01416016,0.006347656,0.9790039,0.5820313,-0.9379883,-2.929688
1432,0.0625,-0.1875,0.0625,0.01025391,-0.005371094,1.010742,0.5820313,-0.9379883,-2.929688
1433,0.25,0.125,0.125,0.01025391,0.01416016,1.006836,0.5820313,-0.9379883,-2.929688
1437,0,0,-0.1875,0.005859375,0.01416016,1.022461,0.5869141,-0.9326172,-2.929688
1438,0.1875,0.1875,-0.0625,0.01025391,0.01416016,1.00293,0.5869141,-0.9326172,-2.929688
1442,0,0,0,0.001953125,0.02636719,0.9750977,0.5869141,-0.9326172,-2.929688
1443,0.0625,0.125,-0.125,0.01025391,0.03027344,1.018555,0.5898438,-0.9453125,-2.927246
1447,0.0625,0.0625,0,0.005859375,0.01025391,0.9990234,0.5898438,-0.9453125,-2.927246
1448,0.1875,0,0.0625,0.005859375,0.01025391,1.010742,0.5898438,-0.9453125,-2.927246
1452,0.3125,0,-0.1875,0.01806641,0.02636719,1.010742,0.5898438,-0.9453125,-2.927246
1453,0.1875,0,0,0.01806641,0.01025391,1.010742,0.5869141,-0.9326172,-2.929688
1457,0,-0.125,-0.1875,-0.001464844,0.01855469,1.006836,0.5869141,-0.9326172,-2.929688
1458,-0.0625,-0.0625,0,0.01025391,-0.0009765625,0.9750977,0.5869141,-0.9326172,-2.929688
1462,0,0,0,0.005859375,0.006347656,1.00293,0.5820313,-0.9404297,-2.932617
1463,0,0,0,-0.001464844,0.01025391,1.00293,0.5820313,-0.9404297,-2.932617
1467,0.0625,0.125,0.25,0.03369141,0.006347656,0.9951172,0.5820313,-0.9404297,-2.932617
1468,0.1875,0.0625,0,0.02197266,-0.0009765625,0.9912109,0.5898438,-0.9501953,-2.935059
1472,0,0.1875,0,0.01025391,0.02246094,1.006836,0.5898438,-0.9501953,-2.935059
1473,0,0,0,-0.005371094,0.006347656,0.9833984,0.5898438,-0.9501953,-2.935059
1477,0,0,0,0.01416016,0.006347656,0.9990234,0.5898438,-0.9501953,-2.935059
1478,-0.25,0.25,0.0625,0.01025391,0.01416016,1.026367,0.5791016,-0.9404297,-2.924805
1482,0.0625,0.0625,0,0.005859375,0.02246094,0.9951172,0.5791016,-0.9404297,-2.924805
1483,0,0,0,0.01806641,0.002441406,1.010742,0.5791016,-0.9404297,-2.924805
1487,0,-0.0625,0,-0.001464844,0.01416016,0.9990234,0.5844727,-0.9379883,-2.927246
1488,0,0.0625,-0.125,0.001953125,0.01025391,1.022461,0.5844727,-0.9379883,-2.927246
1492,0.125,0,0.0625,-0.005371094,0.01416016,1.00293,0.5844727,-0.9379883,-2.927246
1493,0,-0.0625,-0.125,0.01416016,0.006347656,0.9951172,0.5844727,-0.9379883,-2.927246
1497,-0.125,-0.125,-0.25,0.01025391,0.02246094,0.9990234,0.5844727,-0.9379883,-2.927246
1498,0,0.0625,-0.0625,0.01416016,0.006347656,1.00293,0.5844727,-0.9379883,-2.927246
1502,0,0,0,0.03369141,0.02246094,0.9990234,0.5844727,-0.9379883,-2.927246
1503,0.0625,0,-0.0625,0.02587891,0.002441406,0.9990234,0.5898438,-0.9477539,-2.924805
1507,0.0625,0,0,0.01025391,0.006347656,0.9833984,0.5898438,-0.9477539,-2.924805
1508,0.0625,-0.125,-0.0625,-0.02539063,0.006347656,0.9951172,0.5898438,-0.9477539,-2.924805
1512,0.0625,0,0,0.001953125,0.01025391,0.9951172,0.5844727,-0.9379883,-2.932617
1513,0.125,0,-0.0625,-0.009277344,0.01855469,0.9990234,0.5844727,-0.9379883,-2.932617
1517,0,0,-0.0625,-0.001464844,0.02246094,0.9990234,0.5844727,-0.9379883,-2.932617
1518,0,0,0,-0.001464844,0.01025391,1.006836,0.5844727,-0.9379883,-2.932617
1522,-0.0625,-0.0625,-0.0625,0.02587891,0.01855469,0.9873047,0.5820313,-0.9477539,-2.932617
1523,0.0625,0,0,0.02978516,0.006347656,0.9990234,0.5820313,-0.9477539,-2.932617
1527,0.125,0,0,-0.005371094,0.02246094,1.010742,0.5820313,-0.9477539,-2.932617
1528,0,-0.0625,-0.0625,-0.001464844,0.002441406,0.9951172,0.5898438,-0.9404297,-2.935059
1532,-0.0625,0.0625,-0.0625,-0.01318359,0.01416016,0.9951172,0.5898438,-0.9404297,-2.935059
1533,0,0,-0.125,0.01416016,-0.005371094,0.9990234,0.5898438,-0.9404297,-2.935059
1537,0,0.0625,0.125,0.01025391,0.01855469,0.9951172,0.5820313,-0.9404297,-2.927246
1538,0.125,0,-0.0625,0.02587891,0.006347656,0.9912109,0.5820313,-0.9404297,-2.927246
1542,0.1875,0,0.0625,0.01806641,0.01025391,0.9750977,0.5820313,-0.9404297,-2.927246
1543,0,0,0.0625,0.005859375,0.02246094,1.00293,0.5820313,-0.9404297,-2.927246
1547,0,-0.0625,0,0.01416016,-0.005371094,1.006836,0.5820313,-0.9326172,-2.935059
1548,-0.0625,-0.0625,0,0.01416016,0.006347656,1.018555,0.5820313,-0.9326172,-2.935059
1552,0.0625,0,0.0625,-0.009277344,-0.0009765625,1.00293,0.5820313,-0.9326172,-2.935059
1553,0,0.0625,0,0.01025391,-0.01318359,1.00293,0.5976563,-0.9350586,-2.927246
1557,0.1875,-0.0625,0,0.01025391,-0.005371094,1.00293,0.5976563,-0.9350586,-2.927246
1558,0,0.1875,0,0.005859375,0.002441406,1.00293,0.5976563,-0.9350586,-2.927246
1562,0.0625,-0.125,-0.1875,0.005859375,-0.005371094,1.010742,0.5820313,-0.9350586,-2.927246
1564,0,0,0,0.001953125,0.01855469,1.00293,0.5820313,-0.9350586,-2.927246
1568,0.125,0.0625,-0.1875,0.001953125,0.03027344,0.9951172,0.5820313,-0.9350586,-2.927246
1569,0.0625,0.1875,-0.0625,0.01025391,-0.0009765625,0.9790039,0.5820313,-0.9350586,-2.927246
1573,0,-0.25,0,0.01416016,0.006347656,0.9951172,0.5869141,-0.9428711,-2.927246
1574,0,-0.125,-0.0625,0.02978516,0.002441406,1.014648,0.5869141,-0.9428711,-2.927246
1578,0.0625,0.0625,0,0.001953125,0.01025391,0.9833984,0.5869141,-0.9428711,-2.927246
1579,0,-0.0625,0.125,0.005859375,0.01025391,0.9790039,0.5869141,-0.9326172,-2.922363
1583,0,0,0,0.01416016,0.02246094,0.9833984,0.5869141,-0.9326172,-2.922363
1584,-0.0625,0,0.1875,0.01416016,0.006347656,0.9833984,0.5869141,-0.9326172,-2.922363
1588,0.0625,0,0,0.005859375,0.01025391,0.9833984,0.5869141,-0.9326172,-2.922363
1589,0.0625,-0.0625,0,0.01806641,0.002441406,0.9951172,0.5869141,-0.9326172,-2.922363
1593,0.0625,0.1875,0.125,0.02587891,0.03027344,1.010742,0.5869141,-0.9326172,-2.922363
1594,0.125,0,0.0625,0.01025391,-0.005371094,1.014648,0.5869141,-0.9326172,-2.922363
1598,0,0.0625,-0.0625,0.001953125,0.01855469,1.006836,0.5869141,-0.9428711,-2.927246
1599,0.0625,0.125,0.125,0.02197266,0.01025391,1.010742,0.5869141,-0.9428711,-2.927246
1603,0.1875,0,0.0625,0.001953125,0.002441406,1.010742,0.5869141,-0.9428711,-2.927246
1604,0,0.125,0,0.005859375,0.02246094,1.014648,0.5898438,-0.9379883,-2.929688
1608,0,0.125,0,0.01025391,0.01025391,0.9711914,0.5898438,-0.9379883,-2.929688
1609,0,0,0.0625,0.01025391,0.02246094,1.010742,0.5898438,-0.9379883,-2.929688
1613,-0.0625,0.1875,-0.0625,0.01025391,0.006347656,0.9951172,0.5898438,-0.9379883,-2.929688
1614,0.0625,0.125,0.0625,0.01416016,0.01025391,1.010742,0.5898438,-0.9453125,-2.929688
1618,0.0625,0,-0.125,0.01025391,-0.005371094,1.010742,0.5898438,-0.9453125,-2.929688
1619,0.125,-0.0625,-0.125,0.01806641,0.01855469,1.010742,0.5898438,-0.9453125,-2.929688
1623,0,0.0625,0,-0.009277344,0.02246094,1.00293,0.5869141,-0.9428711,-2.924805
1624,0.125,0,0,0.01025391,0.01025391,0.9951172,0.5869141,-0.9428711,-2.924805
1628,0.125,0,-0.125,0.01025391,0.006347656,0.9951172,0.5869141,-0.9428711,-2.924805
1629,0.125,0,-0.1875,0.005859375,0.002441406,1.010742,0.5820313,-0.9350586,-2.929688
1633,0,0,-0.0625,0.01806641,0.02246094,0.9990234,0.5820313,-0.9350586,-2.929688
1634,0.0625,0,0,0.005859375,0.01416016,0.9951172,0.5820313,-0.9350586,-2.929688
1638,0.0625,0.0625,0,0.01025391,0.03027344,1.010742,0.5820313,-0.9350586,-2.929688
1639,0,0.1875,0,0.01025391,0.02636719,1.014648,0.5820313,-0.9326172,-2.932617
1643,0,0,0,-0.001464844,0.01416016,1.010742,0.5820313,-0.9326172,-2.932617
1644,0.1875,0,0.0625,0.005859375,0.002441406,1.014648,0.5820313,-0.9326172,-2.932617
1648,0,0.125,0,-0.001464844,0.01025391,0.9990234,0.5820313,-0.9379883,-2.927246
1649,0.125,0,-0.0625,0.01416016,0.002441406,0.9951172,0.5820313,-0.9379883,-2.927246
1653,0.0625,-0.1875,-0.0625,0.001953125,0.02246094,1.014648,0.5820313,-0.9379883,-2.927246
1654,0.3125,0.125,-0.0625,0.005859375,-0.005371094,0.9912109,0.5898438,-0.9326172,-2.947754
1658,0,0.0625,-0.1875,0.001953125,0.02246094,0.9951172,0.5898438,-0.9326172,-2.947754
1659,0,-0.125,0,0.02197266,0.01416016,1.010742,0.5898438,-0.9326172,-2.947754
1663,0.25,0,0,-0.001464844,0.01025391,1.022461,0.5898438,-0.9326172,-2.947754
1664,0.0625,0,-0.1875,0.001953125,0.02246094,0.9951172,0.5844727,-0.9453125,-2.922363
1668,-0.0625,-0.0625,0,0.02587891,0.002441406,1.014648,0.5844727,-0.9453125,-2.922363
1669,0,-0.125,-0.0625,0.01025391,0.02246094,1.010742,0.5844727,-0.9453125,-2.922363
1673,0,-0.25,-0.0625,0.01025391,0.006347656,0.9873047,0.5742188,-0.9404297,-2.932617
1674,0,-0.125,-0.125,-0.005371094,0.01855469,1.006836,0.5742188,-0.9404297,-2.932617
1678,0.1875,0.1875,-0.1875,-0.001464844,-0.005371094,0.9951172,0.5742188,-0.9404297,-2.932617
1679,0,0,-0.25,0.01025391,0.01025391,0.9750977,0.5742188,-0.9404297,-2.932617
1683,0,0.125,0,-0.001464844,0.01025391,0.9833984,0.5742188,-0.9404297,-2.932617
1684,0.125,0,0,0.005859375,0.03027344,0.9990234,0.5742188,-0.9404297,-2.932617
1688,0,0,0,-0.001464844,0.01855469,1.010742,0.5742188,-0.9404297,-2.932617
1689,0.1875,0.0625,-0.1875,0.01416016,0.02636719,0.9951172,0.5898438,-0.9326172,-2.9375
1693,0.0625,0.0625,0,0.03369141,0.01855469,0.9951172,0.5898438,-0.9326172,-2.9375
1694,0.125,0.125,0,0.01416016,0.01025391,1.022461,0.5898438,-0.9326172,-2.9375
1698,0.0625,-0.125,0.0625,0.02197266,0.01025391,0.9990234,0.5844727,-0.9453125,-2.929688
1699,-0.0625,-0.0625,0,0.01025391,-0.005371094,0.9912109,0.5844727,-0.9453125,-2.929688
1703,0.0625,0.0625,0,-0.005371094,0.002441406,0.9951172,0.5844727,-0.9453125,-2.929688
1704,-0.1875,0.1875,-0.125,0.02197266,0.01025391,0.9873047,0.5844727,-0.9453125,-2.929688
1708,0.0625,-0.0625,0.125,0.001953125,0.006347656,0.9951172,0.5820313,-0.9326172,-2.929688
1709,0,0,0,0.01806641,0.01855469,1.010742,0.5820313,-0.9326172,-2.929688
1713,0.125,0.0625,0,0.01806641,0.002441406,1.006836,0.5820313,-0.9326172,-2.929688
1714,-0.125,0,0,0.001953125,0.01025391,0.9990234,0.5820313,-0.9301758,-2.929688
1718,0,-0.0625,0,0.01025391,0.01025391,1.010742,0.5820313,-0.9301758,-2.929688
1719,0.125,0,-0.0625,0.01025391,0.01025391,0.9951172,0.5820313,-0.9301758,-2.929688
1723,0.0625,0.1875,0,0.01806641,0.01025391,0.9951172,0.5766602,-0.9453125,-2.922363
1725,0.0625,0,-0.0625,0.01416016,0.006347656,0.9912109,0.5766602,-0.9453125,-2.922363
1729,0.0625,0.0625,-0.125,0.001953125,0.02246094,1.022461,0.5766602,-0.9453125,-2.922363
1730,0,-0.0625,0.0625,0.001953125,0.01025391,0.9873047,0.5766602,-0.9453125,-2.922363
1734,-0.0625,0,-0.0625,-0.001464844,0.006347656,1.010742,0.5820313,-0.9301758,-2.922363
1735,0.0625,-0.0625,0.0625,-0.009277344,0.01855469,1.018555,0.5820313,-0.9301758,-2.922363
1739,0,-0.0625,0,-0.005371094,0.002441406,0.9873047,0.5820313,-0.9301758,-2.922363
1740,0,0.0625,-0.0625,0.01806641,-0.0009765625,1.014648,0.5742188,-0.9453125,-2.929688
1744,0.125,-0.125,0,0.02587891,0.01025391,0.9990234,0.5742188,-0.9453125,-2.929688
1745,0,-0.0625,0,0.01416016,0.01416016,0.9951172,0.5742188,-0.9453125,-2.929688
1749,0,-0.25,0.125,0.01025391,0.02246094,1.010742,0.5898438,-0.9404297,-2.924805
1750,0,0.0625,-0.125,-0.001464844,0.01025391,0.9951172,0.5898438,-0.9404297,-2.924805
1754,0,-0.1875,0,-0.001464844,0.01855469,0.9990234,0.5898438,-0.9404297,-2.924805
1755,0.125,0,0,0.001953125,0.01025391,1.00293,0.5898438,-0.9404297,-2.924805
1759,0.0625,0,-0.125,0.001953125,0.02636719,1.010742,0.5820313,-0.9428711,-2.929688
1760,0.125,0.1875,0,0.01806641,0.006347656,1.010742,0.5820313,-0.9428711,-2.929688
1764,-0.0625,0,-0.0625,0.02587891,0.01025391,0.9873047,0.5820313,-0.9428711,-2.929688
1765,0.0625,0,0.0625,0.01806641,0.01025391,1.014648,0.5844727,-0.9428711,-2.914551
1769,0.1875,0,-0.0625,0.01025391,0.01025391,0.9873047,0.5844727,-0.9428711,-2.914551
1770,0.0625,0,0,0.005859375,0.01025391,1.006836,0.5844727,-0.9428711,-2.914551
1774,0.0625,0.0625,0,0.01025391,0.01025391,1.014648,0.5844727,-0.9428711,-2.914551
1775,0,0.125,0,0.005859375,0.04638672,1.018555,0.5844727,-0.9428711,-2.914551
1779,0.0625,0.125,0.0625,0.02197266,0.01025391,1.018555,0.5844727,-0.9428711,-2.914551
1780,0.125,0.3125,0,0.01416016,0.006347656,0.9951172,0.5844727,-0.9428711,-2.914551
1784,-0.125,-0.125,0.0625,0.02197266,0.02636719,1.010742,0.5820313,-0.9326172,-2.924805
1785,0,0,0,0.02197266,0.01855469,0.9951172,0.5820313,-0.9326172,-2.924805
1789,0.0625,-0.0625,-0.125,0.005859375,0.01025391,1.014648,0.5820313,-0.9326172,-2.924805
1790,0,0.1875,-0.125,-0.009277344,0.02246094,0.9912109,0.5922852,-0.9404297,-2.929688
1794,0,0.1875,-0.0625,0.01806641,0.006347656,0.9912109,0.5922852,-0.9404297,-2.929688
1795,-0.125,0,0.0625,0.01025391,0.002441406,1.018555,0.5922852,-0.9404297,-2.929688
1799,0,0.0625,0,0.005859375,0.01025391,0.9833984,0.5922852,-0.9404297,-2.929688
1800,0.0625,0.1875,0,0.01416016,0.02636719,0.9990234,0.5791016,-0.9326172,-2.924805
1804,0.1875,-0.0625,-0.0625,0.02587891,0.006347656,0.9873047,0.5791016,-0.9326172,-2.924805
1805,-0.0625,0,-0.0625,-0.001464844,0.01025391,0.9833984,0.5791016,-0.9326172,-2.924805
1809,0.25,0.0625,0.0625,0.01416016,0.01416016,1.026367,0.5820313,-0.9379883,-2.929688
1810,-0.0625,-0.125,-0.0625,-0.01318359,0.01025391,0.9951172,0.5820313,-0.9379883,-2.929688
1814,0,0,0,0.01416016,0.03027344,0.9790039,0.5820313,-0.9379883,-2.929688
1815,0,0.0625,-0.0625,0.001953125,0.01416016,1.010742,0.5820313,-0.9428711,-2.919434
1819,-0.125,0.125,0.0625,0.01416016,0.01025391,0.9833984,0.5820313,-0.9428711,-2.919434
1820,0.1875,0,-0.125,0.005859375,0.01416016,0.9833984,0.5820313,-0.9428711,-2.919434
1824,0.25,0,0,0.01025391,-0.0009765625,0.9951172,0.5820313,-0.9428711,-2.919434
1825,0,-0.125,-0.125,-0.01318359,0.01025391,0.9873047,0.5820313,-0.9428711,-2.929688
1829,0,0.0625,0,0.01416016,0.01025391,1.00293,0.5820313,-0.9428711,-2.929688
1830,0,-0.0625,0,-0.001464844,0.01025391,1.006836,0.5820313,-0.9428711,-2.929688
1834,0,0.0625,-0.3125,0.02587891,0.01025391,0.9951172,0.5717773,-0.9326172,-2.935059
1835,0.125,0.0625,0,-0.009277344,0.02636719,0.9990234,0.5717773,-0.9326172,-2.935059
1839,0,0.125,0.0625,-0.005371094,0.01855469,0.9833984,0.5717773,-0.9326172,-2.935059
1840,0.1875,0,-0.25,-0.001464844,0.006347656,0.9912109,0.5844727,-0.9350586,-2.927246
1844,0.0625,0,0,0.01416016,-0.005371094,0.9990234,0.5844727,-0.9350586,-2.927246
1845,-0.1875,0.0625,0,0.02197266,0.002441406,0.9873047,0.5844727,-0.9350586,-2.927246
1849,0.0625,0,0,-0.001464844,0.01025391,0.9951172,0.5844727,-0.9350586,-2.927246
1850,0.25,0.125,-0.1875,0.01806641,-0.0009765625,0.9912109,0.5898438,-0.9428711,-2.932617
1854,0.0625,0,-0.125,0.01806641,0.006347656,0.9912109,0.5898438,-0.9428711,-2.932617
1855,0,0.125,0.0625,-0.005371094,0.01416016,1.026367,0.5898438,-0.9428711,-2.932617
1859,0.125,0.1875,0,0.02587891,0.01025391,0.9873047,0.5844727,-0.9326172,-2.929688
1860,0.0625,0.0625,0,-0.005371094,0.01416016,0.9951172,0.5844727,-0.9326172,-2.929688
1864,0.125,0,-0.1875,0.001953125,0.006347656,0.9912109,0.5844727,-0.9326172,-2.929688
1865,0.0625,0.125,0,-0.001464844,0.01025391,0.9951172,0.5844727,-0.9326172,-2.929688
1869,0.0625,0,0.125,0.005859375,0.002441406,0.9951172,0.5844727,-0.9326172,-2.929688
1870,0,0,0.0625,0.01806641,0.01025391,1.006836,0.5844727,-0.9326172,-2.929688
1874,0.125,-0.1875,0,0.02587891,0.002441406,0.9912109,0.5844727,-0.9326172,-2.929688
1875,0,-0.125,0.25,-0.005371094,0.006347656,1.014648,0.5869141,-0.9379883,-2.935059
1879,0.125,0,-0.0625,0.001953125,0.02246094,1.022461,0.5869141,-0.9379883,-2.935059
1880,0.0625,0,-0.0625,-0.001464844,0.006347656,1.006836,0.5869141,-0.9379883,-2.935059
1884,0.3125,-0.125,0,0.01806641,0.002441406,0.9912109,0.5869141,-0.9326172,-2.932617
1886,-0.25,0.25,0,0.01025391,0.01855469,1.006836,0.5869141,-0.9326172,-2.932617
1890,0.1875,0,0,0.01025391,0.002441406,1.00293,0.5869141,-0.9326172,-2.932617
1891,-0.0625,0,0.0625,0.02587891,0.01025391,0.9990234,0.5869141,-0.9326172,-2.932617
1895,0.1875,0.125,0.0625,0.01416016,-0.005371094,1.014648,0.5869141,-0.9326172,-2.932617
1896,0,0,-0.125,0.01416016,0.01025391,1.026367,0.5869141,-0.9326172,-2.932617
1900,0,0.125,0,0.001953125,0.01855469,1.010742,0.5869141,-0.9326172,-2.932617
1901,0.0625,0.0625,0,0.005859375,0.02246094,0.9951172,0.6000977,-0.9477539,-2.929688
1905,0.125,0,0.125,0.001953125,0.01855469,0.9833984,0.6000977,-0.9477539,-2.929688
1906,-0.125,0,0,0.001953125,0.002441406,0.9990234,0.6000977,-0.9477539,-2.929688
1910,0,0.0625,0,-0.001464844,0.01025391,1.00293,0.5869141,-0.9428711,-2.932617
1911,-0.0625,0,0.1875,0.005859375,0.01855469,0.9912109,0.5869141,-0.9428711,-2.932617
1915,0.0625,-0.0625,0,0.01025391,0.01855469,1.00293,0.5869141,-0.9428711,-2.932617
1916,0.0625,0,0,0.001953125,0.006347656,1.010742,0.5869141,-0.9428711,-2.932617
1920,0,0,0,0.01416016,0.01025391,1.00293,0.5820313,-0.9404297,-2.927246
1921,0.0625,0,-0.0625,0.02978516,0.01025391,0.9912109,0.5820313,-0.9404297,-2.927246
1925,-0.1875,0.0625,0,-0.005371094,-0.0009765625,0.9951172,0.5820313,-0.9404297,-2.927246
1926,0.0625,0.0625,-0.0625,0.005859375,0.03027344,1.010742,0.5717773,-0.9453125,-2.929688
1930,0,0.0625,0,0.01025391,0.01416016,1.00293,0.5717773,-0.9453125,-2.929688
1931,0,-0.0625,-0.0625,0.001953125,0.04248047,0.9951172,0.5717773,-0.9453125,-2.929688
1935,0,0,0,0.01806641,0.01416016,1.010742,0.5869141,-0.9428711,-2.924805
1936,0,0.0625,0,0.005859375,0.01855469,0.9750977,0.5869141,-0.9428711,-2.924805
1940,0.125,0,0,0.001953125,0.02246094,1.014648,0.5869141,-0.9428711,-2.924805
1941,0,0,0.0625,-0.001464844,0.01416016,1.030273,0.5869141,-0.9428711,-2.924805
1945,0.1875,0.125,0,0.01416016,0.01025391,0.9790039,0.5766602,-0.9428711,-2.932617
1946,0,0.125,-0.1875,0.01806641,-0.005371094,0.9912109,0.5766602,-0.9428711,-2.932617
1950,0,0,-0.0625,0.01416016,0.01855469,1.026367,0.5766602,-0.9428711,-2.932617
1951,0.0625,0,0,0.005859375,0.002441406,0.9833984,0.5922852,-0.9428711,-2.94043
1955,0,0,-0.125,-0.009277344,0.02636719,1.006836,0.5922852,-0.9428711,-2.94043
1956,0.125,0,0,-0.001464844,0.01855469,0.9990234,0.5922852,-0.9428711,-2.94043
1960,0,0.0625,0.25,0.01806641,0.01416016,1.010742,0.5922852,-0.9428711,-2.94043
1961,0,0,-0.125,0.01025391,0.02246094,1.00293,0.5922852,-0.9428711,-2.94043
1965,0,0,0.0625,0.01416016,0.02636719,0.9833984,0.5922852,-0.9428711,-2.94043
1966,-0.125,0.1875,-0.0625,0.001953125,0.002441406,1.010742,0.5922852,-0.9428711,-2.94043
1970,0.0625,0,0,0.02587891,0.002441406,0.9951172,0.5766602,-0.9404297,-2.927246
1971,-0.125,0.1875,0.125,0.01416016,0.02246094,0.9833984,0.5766602,-0.9404297,-2.927246
1975,0,0,0,-0.001464844,-0.005371094,1.026367,0.5766602,-0.9404297,-2.927246
1976,0.125,0,-0.0625,0.01025391,0.01855469,0.9990234,0.5844727,-0.9428711,-2.932617
1980,-0.0625,0.0625,0.0625,0.01416016,0.01025391,1.010742,0.5844727,-0.9428711,-2.932617
1981,0.125,0,0,0.01025391,0.01855469,0.9990234,0.5844727,-0.9428711,-2.932617
1985,0.1875,-0.0625,0,0.005859375,0.01855469,0.9951172,0.5844727,-0.9428711,-2.932617
1986,0.375,0.1875,-0.125,-0.005371094,0.006347656,1.010742,0.5844727,-0.9404297,-2.927246
1990,0.0625,-0.1875,0,0.02197266,0.03027344,0.9990234,0.5844727,-0.9404297,-2.927246
1991,0.25,0,0,0.005859375,0.006347656,1.00293,0.5844727,-0.9404297,-2.927246
1995,0,0.125,0,0.001953125,0.03027344,0.9912109,0.5844727,-0.9326172,-2.932617
1996,0,-0.0625,-0.0625,0.02197266,0.01025391,1.006836,0.5844727,-0.9326172,-2.932617
2000,0,0,-0.0625,0.01416016,0.03027344,1.00293,0.5844727,-0.9326172,-2.932617
2001,0,0.1875,-0.0625,0.01416016,0.01025391,0.9833984,0.5869141,-0.9453125,-2.932617
2005,0.125,-0.0625,-0.0625,0.01806641,0.01025391,0.9833984,0.5869141,-0.9453125,-2.932617
2006,0.125,0,-0.0625,0.005859375,0.006347656,1.010742,0.5869141,-0.9453125,-2.932617
2010,-0.0625,-0.125,-0.125,0.01806641,0.02246094,1.010742,0.5869141,-0.9453125,-2.932617
2011,0.0625,0.0625,0.0625,-0.005371094,0.01025391,1.010742,0.5869141,-0.9379883,-2.932617
2015,0.125,-0.0625,0.0625,0.01025391,0.01416016,1.00293,0.5869141,-0.9379883,-2.932617
2016,0.0625,-0.125,0,0.01025391,0.01025391,1.010742,0.5869141,-0.9379883,-2.932617
2020,0,0.125,0,0.02197266,0.01855469,1.010742,0.5922852,-0.9404297,-2.929688
2021,0,0.125,0,-0.001464844,0.006347656,0.9833984,0.5922852,-0.9404297,-2.929688
2025,-0.125,-0.0625,0.3125,0.01025391,0.01025391,1.010742,0.5922852,-0.9404297,-2.929688
2026,0,-0.0625,-0.125,0.01416016,0.002441406,1.010742,0.5869141,-0.9477539,-2.929688
2030,0,-0.1875,0,0.01025391,0.002441406,0.9951172,0.5869141,-0.9477539,-2.929688
2031,0.25,0,0.0625,0.001953125,0.01855469,1.006836,0.5869141,-0.9477539,-2.929688
2035,-0.1875,0,0,0.005859375,0.006347656,1.006836,0.5869141,-0.9477539,-2.929688
2036,0.0625,0,0,0.001953125,0.006347656,1.010742,0.5844727,-0.925293,-2.929688
2040,-0.0625,0.125,-0.1875,0.01416016,0.01025391,0.9990234,0.5844727,-0.925293,-2.929688
2041,0.0625,-0.0625,-0.0625,-0.001464844,0.02246094,0.9833984,0.5844727,-0.925293,-2.929688
2045,0,0.125,0.1875,0.005859375,0.01416016,0.9951172,0.5844727,-0.9428711,-2.924805
2048,0.125,-0.0625,0,0.001953125,0.01416016,0.9912109,0.5844727,-0.9428711,-2.924805
2052,0,0,0.0625,0.01416016,0.01855469,0.9833984,0.5844727,-0.9428711,-2.924805
2053,0.125,-0.125,-0.0625,0.005859375,0.006347656,0.9750977,0.5844727,-0.9428711,-2.924805
2057,0,0.0625,0,0.01416016,-0.005371094,1.006836,0.5844727,-0.9428711,-2.924805
2058,-0.0625,-0.125,0,-0.005371094,0.002441406,1.00293,0.5844727,-0.9428711,-2.924805
2062,0,0.0625,0,0.005859375,-0.005371094,0.9951172,0.5844727,-0.9428711,-2.924805
2063,0.0625,0,0,0.01416016,0.002441406,1.010742,0.5844727,-0.9404297,-2.932617
2067,0,0.125,0,0.01416016,0.01416016,1.00293,0.5844727,-0.9404297,-2.932617
2068,0,0.0625,-0.0625,0.01025391,-0.0009765625,0.9990234,0.5844727,-0.9404297,-2.932617
2072,0.0625,0,0.0625,0.01025391,0.002441406,0.9833984,0.5844727,-0.9428711,-2.924805
2073,0,-0.0625,0.1875,0.001953125,0.01416016,0.9750977,0.5844727,-0.9428711,-2.924805
2077,0,0.125,0,0.02587891,-0.0009765625,1.00293,0.5844727,-0.9428711,-2.924805
2078,-0.0625,0.125,0.0625,0.01025391,0.03857422,0.9711914,0.5844727,-0.9428711,-2.924805
2082,0,-0.125,0,0.01806641,0.01855469,1.014648,0.5869141,-0.9404297,-2.924805
2083,0,0.0625,0.0625,0.01025391,0.006347656,0.9750977,0.5869141,-0.9404297,-2.924805
2087,0.0625,0.3125,-0.25,0.02587891,0.006347656,0.9912109,0.5869141,-0.9404297,-2.924805
2088,-0.0625,0,0,0.01416016,0.006347656,0.9912109,0.5766602,-0.9350586,-2.922363
2092,0.125,0.125,0,0.01025391,-0.005371094,0.9711914,0.5766602,-0.9350586,-2.922363
2093,-0.1875,0,-0.1875,0.005859375,0.01855469,0.9951172,0.5766602,-0.9350586,-2.922363
2097,0.0625,0.0625,-0.0625,-0.001464844,0.01025391,0.9990234,0.5898438,-0.9477539,-2.927246
2098,0.125,0.125,0.0625,0.01806641,0.01025391,0.9912109,0.5898438,-0.9477539,-2.927246
2102,0,0.1875,-0.25,0.001953125,0.006347656,0.9790039,0.5898438,-0.9477539,-2.927246
2103,0,0,0,0.01025391,0.002441406,0.9990234,0.5898438,-0.9477539,-2.927246
2107,0.1875,0.1875,0,0.01025391,-0.009277344,1.014648,0.5898438,-0.9326172,-2.929688
2108,-0.0625,0.0625,0.125,0.01416016,0.01416016,1.026367,0.5898438,-0.9326172,-2.929688
2112,0.0625,-0.0625,-0.0625,0.02197266,0.02246094,1.00293,0.5898438,-0.9326172,-2.929688
2113,0.125,-0.125,0,0.01025391,-0.005371094,1.010742,0.5869141,-0.9350586,-2.929688
2117,0,-0.125,-0.0625,0.01025391,0.01025391,0.9951172,0.5869141,-0.9350586,-2.929688
2118,0.125,0,0.0625,0.01416016,0.002441406,0.9912109,0.5869141,-0.9350586,-2.929688
2122,0,-0.125,0,0.005859375,0.03027344,0.9951172,0.5922852,-0.9453125,-2.932617
2123,0.125,0,0,0.01025391,0.02636719,0.9951172,0.5922852,-0.9453125,-2.932617
2127,0,0.1875,0,-0.001464844,0.01025391,1.006836,0.5922852,-0.9453125,-2.932617
2128,0.0625,-0.125,-0.0625,-0.009277344,0.03857422,0.9990234,0.5922852,-0.9453125,-2.932617
2132,0,0,0,0.005859375,0.03417969,0.9790039,0.5869141,-0.9404297,-2.935059
2133,0,0.0625,0.125,0.01416016,-0.0009765625,1.010742,0.5869141,-0.9404297,-2.935059
2137,0.0625,0,0.0625,0.005859375,0.01855469,1.010742,0.5869141,-0.9404297,-2.935059
2138,0,0,-0.0625,0.001953125,0.01025391,0.9833984,0.5898438,-0.9350586,-2.927246
2142,0,0,0,0.005859375,0.002441406,1.014648,0.5898438,-0.9350586,-2.927246
2143,0,0,-0.0625,0.005859375,-0.0009765625,1.010742,0.5898438,-0.9350586,-2.927246
2147,0.0625,-0.0625,0,0.01416016,0.01025391,0.9833984,0.5898438,-0.9350586,-2.927246
2148,-0.0625,0,0,0.001953125,0.01025391,1.018555,0.5898438,-0.9350586,-2.927246
2152,0.1875,-0.1875,-0.1875,0.01416016,0.02246094,1.010742,0.5898438,-0.9350586,-2.927246
2153,0,-0.125,0,0.01416016,-0.0009765625,0.9951172,0.5898438,-0.9350586,-2.927246
2157,0,-0.125,0,0.001953125,0.002441406,0.9912109,0.5844727,-0.9379883,-2.932617
2158,0,0.0625,0,0.01025391,0.02636719,1.022461,0.5844727,-0.9379883,-2.932617
2162,-0.0625,0,0,0.005859375,0.01025391,1.00293,0.5844727,-0.9379883,-2.932617
2163,0,0,0.125,0.01416016,0.03417969,1.010742,0.5869141,-0.9326172,-2.94043
2167,0.125,0,0,0.005859375,-0.0009765625,0.9833984,0.5869141,-0.9326172,-2.94043
2168,0,0.0625,-0.125,-0.005371094,0.01416016,1.006836,0.5869141,-0.9326172,-2.94043
2172,0,0,-0.0625,0.01806641,0.002441406,1.010742,0.5869141,-0.9326172,-2.94043
2173,0.0625,0.0625,0,0.01025391,0.02246094,1.010742,0.5820313,-0.9526367,-2.924805
2177,0,0,0,0.005859375,0.01855469,1.022461,0.5820313,-0.9526367,-2.924805
2178,-0.0625,0.125,0.125,0.03369141,0.01855469,1.010742,0.5820313,-0.9526367,-2.924805
2182,0,0.0625,0,0.02587891,0.01416016,0.9951172,0.5898438,-0.9404297,-2.929688
2183,0,-0.125,0,-0.005371094,0.01025391,0.9873047,0.5898438,-0.9404297,-2.929688
2187,0.0625,0.0625,-0.1875,-0.001464844,0.002441406,0.9951172,0.5898438,-0.9404297,-2.929688
2188,-0.125,0.0625,0,-0.001464844,0.01855469,1.00293,0.5869141,-0.9428711,-2.927246
2192,0.1875,0,0,0.001953125,-0.005371094,1.010742,0.5869141,-0.9428711,-2.927246
2193,0.0625,0.0625,-0.0625,0.01806641,0.01855469,1.026367,0.5869141,-0.9428711,-2.927246
2197,0.125,0,-0.0625,0.02587891,0.006347656,0.9672852,0.5869141,-0.9428711,-2.927246
2198,-0.125,0.0625,-0.0625,-0.001464844,0.02636719,0.9951172,0.5922852,-0.9350586,-2.927246
2202,0,-0.0625,-0.125,0.005859375,0.006347656,1.010742,0.5922852,-0.9350586,-2.927246
2203,-0.0625,0,-0.0625,0.01416016,-0.005371094,1.010742,0.5922852,-0.9350586,-2.927246
2207,0.125,0,0.0625,0.01025391,0.01855469,0.9951172,0.6000977,-0.9379883,-2.929688
2209,-0.125,0.0625,-0.0625,0.001953125,0.01025391,0.9951172,0.6000977,-0.9379883,-2.929688
2213,-0.0625,0,0,0.02197266,0.03417969,1.010742,0.6000977,-0.9379883,-2.929688
2214,0.0625,0,-0.125,0.001953125,0.002441406,1.010742,0.5844727,-0.9477539,-2.924805
2218,0.125,-0.0625,0,0.01416016,0.006347656,1.006836,0.5844727,-0.9477539,-2.924805
2219,0.0625,-0.125,0.1875,0.005859375,0.006347656,1.010742,0.5844727,-0.9477539,-2.924805
2223,0.25,0,-0.25,0.01025391,0.006347656,1.010742,0.5844727,-0.9477539,-2.924805
2224,0.125,0.0625,0,0.01025391,0.006347656,0.9711914,0.5898438,-0.9379883,-2.927246
2228,0,-0.0625,0,0.02197266,0.01855469,0.9912109,0.5898438,-0.9379883,-2.927246
2229,0.25,0,0.0625,-0.001464844,0.006347656,1.030273,0.5898438,-0.9379883,-2.927246
2233,0.0625,0.125,0,0.01416016,-0.005371094,0.9951172,0.5922852,-0.9379883,-2.929688
2234,0.1875,0,0.0625,0.005859375,-0.01318359,0.9711914,0.5922852,-0.9379883,-2.929688
2238,0.125,0.1875,0,-0.001464844,0.01025391,1.010742,0.5922852,-0.9379883,-2.929688
2239,0.25,0.125,0,-0.001464844,0.006347656,0.9833984,0.5922852,-0.9379883,-2.929688
2243,0.0625,0,0.125,0.01416016,0.01025391,1.006836,0.5922852,-0.9379883,-2.929688
2244,0.1875,-0.0625,0.0625,0.01806641,0.03417969,0.9912109,0.5922852,-0.9379883,-2.929688
2248,0,-0.125,-0.125,0.01806641,0.006347656,1.010742,0.5922852,-0.9379883,-2.929688
2249,0.125,0,0,-0.001464844,0.006347656,1.006836,0.5791016,-0.9453125,-2.929688
2253,0.1875,-0.0625,0,0.01025391,0.006347656,1.014648,0.5791016,-0.9453125,-2.929688
2254,0.125,0,-0.0625,0.01025391,-0.009277344,1.00293,0.5791016,-0.9453125,-2.929688
2258,0,0.1875,-0.0625,0.01806641,0.002441406,0.9990234,0.5844727,-0.9301758,-2.932617
2259,0,0,0,-0.009277344,-0.005371094,1.00293,0.5844727,-0.9301758,-2.932617
2263,0.125,0.0625,0,0.01416016,0.01025391,1.014648,0.5844727,-0.9301758,-2.932617
2264,0,0.1875,0.1875,0.01806641,0.01025391,1.010742,0.5844727,-0.9301758,-2.932617
2268,0.0625,0,-0.0625,0.01806641,0.006347656,0.9790039,0.5869141,-0.9404297,-2.924805
2269,0.125,0,-0.25,-0.005371094,0.01025391,0.9951172,0.5869141,-0.9404297,-2.924805
2273,0.0625,0,-0.125,0.01806641,0.002441406,0.9951172,0.5869141,-0.9404297,-2.924805
2274,0,0.0625,0.125,0.02587891,0.02636719,1.018555,0.5898438,-0.9404297,-2.929688
2278,0,0.125,0,-0.01708984,0.01025391,0.9873047,0.5898438,-0.9404297,-2.929688
2279,0.3125,0,-0.1875,0.01025391,0.01025391,1.00293,0.5898438,-0.9404297,-2.929688
2283,0,0.0625,0,0.02197266,0.002441406,0.9951172,0.5844727,-0.9453125,-2.924805
2284,0,0.1875,0.0625,0.001953125,0.002441406,1.018555,0.5844727,-0.9453125,-2.924805
2288,0,0.125,-0.125,0.01806641,-0.0009765625,1.010742,0.5844727,-0.9453125,-2.924805
2289,0,0,0,0.01416016,-0.009277344,1.026367,0.5844727,-0.9453125,-2.924805
2293,0.0625,0,0,0.001953125,0.03027344,0.9873047,0.5869141,-0.9404297,-2.935059
2294,0.125,0.125,0,0.005859375,0.006347656,0.9990234,0.5869141,-0.9404297,-2.935059
2298,0,0,-0.0625,0.005859375,0.006347656,0.9873047,0.5869141,-0.9404297,-2.935059
2299,0,-0.0625,0,-0.009277344,-0.02099609,0.9990234,0.5922852,-0.9379883,-2.927246
2303,0.1875,-0.0625,0,0.01025391,0.002441406,0.9951172,0.5922852,-0.9379883,-2.927246
2304,0.0625,0,-0.125,0.01416016,0.02246094,0.9990234,0.5922852,-0.9379883,-2.927246
2308,0.0625,0,0,0.01806641,-0.02099609,0.9833984,0.5820313,-0.9404297,-2.924805
2309,-0.0625,0,0.125,0.001953125,0.03417969,0.9990234,0.5820313,-0.9404297,-2.924805
2313,0.0625,0.0625,0,0.01416016,0.01025391,0.9990234,0.5820313,-0.9404297,-2.924805
2314,0,-0.25,-0.1875,0.02587891,0.01855469,0.9873047,0.5820313,-0.9404297,-2.924805
2318,-0.0625,-0.0625,0.125,0.02587891,0.01025391,0.9833984,0.5844727,-0.9428711,-2.932617
2319,0.0625,0.0625,0,0.005859375,0.002441406,0.9990234,0.5844727,-0.9428711,-2.932617
2323,0,0,-0.0625,-0.001464844,0.01416016,0.9951172,0.5844727,-0.9428711,-2.932617
2324,-0.1875,0,-0.1875,0.005859375,0.01025391,0.9990234,0.5820313,-0.9379883,-2.927246
2328,0.125,-0.125,0,0.01416016,0.01025391,0.9951172,0.5820313,-0.9379883,-2.927246
2329,0.125,0,0,0.001953125,0.002441406,1.018555,0.5820313,-0.9379883,-2.927246
2333,0,0,0,0.01025391,0.002441406,0.9912109,0.5820313,-0.9379883,-2.927246
2334,0.0625,0.0625,-0.0625,0.001953125,0.01025391,0.9833984,0.5820313,-0.9379883,-2.927246
2338,0,0,0,0.01806641,0.006347656,0.9555664,0.5820313,-0.9379883,-2.927246
2339,-0.0625,0.1875,-0.0625,0.01025391,0.03027344,0.9912109,0.5820313,-0.9379883,-2.927246
2343,-0.0625,0.1875,0,0.02587891,0.002441406,0.9912109,0.5742188,-0.9350586,-2.924805
2344,0.125,0.0625,0,0.001953125,0.01025391,0.9790039,0.5742188,-0.9350586,-2.924805
2348,-0.0625,0,-0.0625,0.001953125,0.01025391,0.9833984,0.5742188,-0.9350586,-2.924805
2349,-0.0625,0.0625,0.0625,0.005859375,0.01025391,0.9951172,0.5869141,-0.9379883,-2.929688
2353,0.0625,0,0,-0.009277344,-0.01708984,1.010742,0.5869141,-0.9379883,-2.929688
2354,0.0625,0,0,0.01416016,0.01855469,1.00293,0.5869141,-0.9379883,-2.929688
2358,0,-0.125,0,0.01025391,0.01855469,1.010742,0.5869141,-0.9379883,-2.929688
2359,0.1875,0.1875,0.0625,0.005859375,0.006347656,1.00293,0.5717773,-0.9404297,-2.927246
2363,0,0.125,0.1875,0.01025391,0.02246094,0.9833984,0.5717773,-0.9404297,-2.927246
2364,0.125,-0.125,0,0.01806641,-0.0009765625,1.014648,0.5717773,-0.9404297,-2.927246
2368,0.125,0,0,0.01025391,0.01025391,0.9990234,0.5844727,-0.9404297,-2.929688
2370,0,-0.125,-0.0625,0.005859375,0.03417969,1.00293,0.5844727,-0.9404297,-2.929688
2374,0.1875,0.25,0,0.01806641,0.02636719,0.9833984,0.5844727,-0.9404297,-2.929688
2375,0.0625,0,-0.0625,0.02197266,0.01416016,0.9873047,0.5947266,-0.9428711,-2.929688
2379,0,0.0625,-0.125,-0.005371094,0.006347656,0.9750977,0.5947266,-0.9428711,-2.929688
2380,0.0625,0,-0.125,0.001953125,0.03857422,0.9990234,0.5947266,-0.9428711,-2.929688
2384,0,-0.0625,0,0.001953125,0.002441406,0.9833984,0.5947266,-0.9428711,-2.929688
2385,0,-0.125,-0.0625,0.005859375,0.006347656,1.010742,0.5869141,-0.9404297,-2.935059
2389,0,-0.125,0.0625,-0.001464844,-0.005371094,1.018555,0.5869141,-0.9404297,-2.935059
2390,0,0.125,0.1875,0.001953125,0.006347656,0.9912109,0.5869141,-0.9404297,-2.935059
2394,0.125,0.125,-0.0625,0.01806641,0.006347656,1.018555,0.5791016,-0.9379883,-2.9375
2395,0,0.125,0,-0.009277344,0.01416016,0.9951172,0.5791016,-0.9379883,-2.9375
2399,0.25,0.125,-0.0625,0.02197266,0.01416016,1.010742,0.5791016,-0.9379883,-2.9375
2400,0,0.0625,-0.0625,0.02587891,0.02246094,0.9951172,0.5844727,-0.9301758,-2.922363
2404,0,0,-0.1875,-0.01318359,0.01025391,0.9873047,0.5844727,-0.9301758,-2.922363
2405,0,0.0625,0,-0.005371094,0.01416016,0.9672852,0.5844727,-0.9301758,-2.922363
2409,0.125,0.125,0.0625,0.01416016,0.02246094,0.9912109,0.5844727,-0.9301758,-2.922363
2410,0.1875,-0.0625,0,0.005859375,0.01855469,0.9833984,0.5791016,-0.9301758,-2.935059
2414,0.125,0.0625,0,0.005859375,0.01025391,0.9833984,0.5791016,-0.9301758,-2.935059
2415,0,0.0625,-0.0625,0.01806641,0.01025391,1.014648,0.5791016,-0.9301758,-2.935059
2419,0.3125,0.1875,0,0.01025391,0.02246094,0.9990234,0.5869141,-0.9404297,-2.9375
2420,0,0.0625,-0.0625,0.001953125,0.01025391,1.030273,0.5869141,-0.9404297,-2.9375
2424,0,0,0,0.01025391,0.01025391,1.010742,0.5869141,-0.9404297,-2.9375
2425,0.0625,0.125,-0.0625,0.01806641,0.01025391,0.9873047,0.5869141,-0.9404297,-2.9375
2429,0,0.0625,0,0.005859375,0.01025391,0.9990234,0.5869141,-0.9404297,-2.9375
2430,-0.125,0.0625,0,0.01806641,0.01025391,0.9990234,0.5869141,-0.9404297,-2.9375
2434,0.0625,0,0.125,-0.005371094,-0.005371094,0.9951172,0.5869141,-0.9404297,-2.9375
2435,0,0,0.0625,0.01416016,-0.0009765625,0.9912109,0.5717773,-0.9428711,-2.9375
2439,0.1875,0.125,0.0625,0.001953125,-0.005371094,0.9951172,0.5717773,-0.9428711,-2.9375
2440,0.1875,0.0625,0,0.01806641,0.01416016,1.010742,0.5717773,-0.9428711,-2.9375
2444,0,-0.0625,0,0.01416016,0.006347656,0.9833984,0.5791016,-0.9379883,-2.932617
2445,0,0.0625,-0.0625,0.01025391,0.006347656,0.9873047,0.5791016,-0.9379883,-2.932617
2449,0.0625,0.0625,0.0625,0.02197266,0.03027344,0.9951172,0.5791016,-0.9379883,-2.932617
2450,0.25,0,0.0625,0.01806641,0.006347656,0.9912109,0.5791016,-0.9379883,-2.932617
2454,0,0,0.0625,0.01416016,0.01416016,0.9833984,0.5820313,-0.9350586,-2.919434
2455,0.25,0,0,0.01806641,0.02636719,0.9990234,0.5820313,-0.9350586,-2.919434
2459,0.125,-0.1875,0.1875,0.02587891,0.006347656,1.014648,0.5820313,-0.9350586,-2.919434
2460,0.0625,0,0,0.01806641,0.002441406,0.9951172,0.5869141,-0.9428711,-2.927246
2464,0,0.0625,0,0.01025391,0.006347656,0.9990234,0.5869141,-0.9428711,-2.927246
2465,-0.125,0.1875,-0.1875,0.01416016,-0.01318359,1.03418,0.5869141,-0.9428711,-2.927246
2469,0.0625,0,0,0.01025391,0.01416016,1.010742,0.5844727,-0.9379883,-2.929688
2470,-0.0625,-0.0625,0,0.01806641,0.01025391,0.9873047,0.5844727,-0.9379883,-2.929688
2474,0,0,0,0.01806641,0.03857422,1.010742,0.5844727,-0.9379883,-2.929688
2475,0.0625,-0.0625,-0.125,0.01416016,-0.0009765625,1.010742,0.5844727,-0.9379883,-2.929688
2479,0,-0.0625,-0.0625,0.01416016,0.01025391,0.9951172,0.5844727,-0.9404297,-2.9375
2480,0.0625,0,0,0.01416016,0.01025391,0.9833984,0.5844727,-0.9404297,-2.9375
2484,-0.125,0.0625,-0.0625,-0.005371094,0.03857422,0.9951172,0.5844727,-0.9404297,-2.9375
2485,-0.0625,0.0625,0,0.01806641,0.002441406,0.9990234,0.5820313,-0.9453125,-2.929688
2489,0.125,0.125,-0.125,0.001953125,0.02246094,1.006836,0.5820313,-0.9453125,-2.929688
2490,0,0,-0.125,0.005859375,0.01855469,0.9951172,0.5820313,-0.9453125,-2.929688
2494,0.0625,-0.0625,0,-0.001464844,0.01855469,0.9951172,0.5820313,-0.9350586,-2.927246
2495,0,0,-0.0625,-0.005371094,0.01855469,0.9951172,0.5820313,-0.9350586,-2.927246
2499,0,0.0625,0.1875,-0.001464844,0.01025391,1.00293,0.5820313,-0.9350586,-2.927246
2500,0.25,0.0625,-0.0625,0.001953125,-0.009277344,0.9833984,0.5820313,-0.9350586,-2.927246
2504,0,0,0.125,0.01025391,0.01416016,0.9873047,0.5844727,-0.9404297,-2.929688
2505,-0.0625,0,0.0625,-0.001464844,0.01416016,1.010742,0.5844727,-0.9404297,-2.929688
2509,0,0,-0.0625,0.01025391,0.01416016,0.9873047,0.5844727,-0.9404297,-2.929688
2510,0,0,0,0.01025391,-0.005371094,0.9750977,0.5766602,-0.9404297,-2.927246
2514,0.125,0,-0.0625,0.01416016,0.002441406,1.00293,0.5766602,-0.9404297,-2.927246
2515,0.1875,0,0,0.01416016,0.02246094,1.014648,0.5766602,-0.9404297,-2.927246
2519,0.0625,0,0,0.005859375,0.02636719,0.9990234,0.5766602,-0.9404297,-2.927246
2520,0.25,0,-0.0625,0.01806641,0.03027344,0.9990234,0.5766602,-0.9404297,-2.927246
2524,0,0,-0.0625,-0.009277344,0.006347656,0.9912109,0.5766602,-0.9404297,-2.927246
2525,0.0625,0,0.0625,0.01806641,-0.02099609,0.9833984,0.5766602,-0.9404297,-2.927246
2529,0.1875,0.125,0,0.01025391,0.01025391,1.010742,0.5820313,-0.9350586,-2.929688
2531,-0.0625,-0.125,-0.0625,-0.001464844,0.01416016,0.9990234,0.5820313,-0.9350586,-2.929688
2535,0.0625,0.0625,0,0.005859375,0.002441406,0.9912109,0.5820313,-0.9350586,-2.929688
2536,0.0625,-0.0625,0.125,0.01806641,0.03027344,1.014648,0.5898438,-0.9428711,-2.929688
2540,0,0.0625,0.0625,0.001953125,-0.005371094,1.006836,0.5898438,-0.9428711,-2.929688
2541,-0.0625,0,0.0625,0.001953125,-0.0009765625,0.9873047,0.5898438,-0.9428711,-2.929688
2545,-0.0625,0.0625,0,0.01806641,0.01855469,0.9951172,0.5898438,-0.9428711,-2.929688
2546,0.125,0.1875,0,0.02978516,0.01855469,1.006836,0.5844727,-0.9428711,-2.932617
2550,0,0,0.0625,0.001953125,0.006347656,1.014648,0.5844727,-0.9428711,-2.932617
2551,0,-0.125,0,0.01025391,0.01855469,1.014648,0.5844727,-0.9428711,-2.932617
2555,0.0625,0,0.1875,0.01806641,0.006347656,0.9750977,0.5844727,-0.9326172,-2.927246
2556,0,-0.0625,0,0.001953125,0.006347656,1.018555,0.5844727,-0.9326172,-2.927246
2560,0.0625,0,0.1875,0.01025391,0.02246094,0.9912109,0.5844727,-0.9326172,-2.927246
2561,0.125,0.25,0.0625,0.005859375,0.02636719,1.00293,0.5820313,-0.9404297,-2.929688
2565,-0.125,0,-0.125,-0.01318359,0.01025391,0.9951172,0.5820313,-0.9404297,-2.929688
2566,0.0625,0.125,-0.125,0.001953125,0.01025391,1.010742,0.5820313,-0.9404297,-2.929688
2570,0,-0.0625,0.0625,0.01025391,0.02636719,1.00293,0.5820313,-0.9404297,-2.929688
2571,0.125,0.0625,-0.0625,0.02587891,0.002441406,1.026367,0.5898438,-0.9350586,-2.927246
2575,0.0625,-0.0625,0,0.01025391,0.01025391,0.9990234,0.5898438,-0.9350586,-2.927246
2576,-0.0625,0,-0.0625,-0.009277344,0.02246094,0.9912109,0.5898438,-0.9350586,-2.927246
2580,0,0.0625,0,0.02197266,0.002441406,1.014648,0.5898438,-0.9379883,-2.932617
2581,0,-0.0625,-0.3125,0.01806641,0.01416016,0.9990234,0.5898438,-0.9379883,-2.932617
2585,0.0625,0,0,0.01806641,0.01855469,1.014648,0.5898438,-0.9379883,-2.932617
2586,0,0.0625,0,0.02197266,0.01025391,0.9873047,0.5869141,-0.9404297,-2.927246
2590,0.125,0,0,-0.001464844,0.002441406,1.010742,0.5869141,-0.9404297,-2.927246
2591,-0.125,0,-0.0625,0.02587891,0.01416016,1.014648,0.5869141,-0.9404297,-2.927246
2595,0,0,-0.1875,0.01416016,-0.0009765625,1.006836,0.5869141,-0.9404297,-2.927246
2596,0,0,-0.125,0.01416016,0.01416016,1.010742,0.5869141,-0.9501953,-2.927246
2600,-0.0625,0,0.0625,0.01025391,0.01025391,1.00293,0.5869141,-0.9501953,-2.927246
2601,0,0,0,0.01025391,0.01025391,0.9833984,0.5869141,-0.9501953,-2.927246
2605,0,0.125,0.0625,0.01025391,0.006347656,0.9951172,0.5869141,-0.9379883,-2.927246
2606,0,0,-0.0625,0.005859375,0.02636719,0.9833984,0.5869141,-0.9379883,-2.927246
2610,-0.0625,0,-0.25,0.02197266,0.002441406,1.00293,0.5869141,-0.9379883,-2.927246
2611,-0.125,0,0,0.01025391,0.03027344,0.9990234,0.5869141,-0.9379883,-2.927246
2615,0.0625,0.0625,0,0.01416016,0.01025391,1.014648,0.5869141,-0.9379883,-2.927246
2616,0.0625,0.0625,0,0.005859375,0.01855469,1.010742,0.5869141,-0.9379883,-2.927246
2620,0.125,-0.0625,-0.1875,0.005859375,-0.01318359,1.00293,0.5869141,-0.9379883,-2.927246
2621,0,0,-0.125,0.01806641,0.002441406,1.010742,0.5820313,-0.9350586,-2.929688
2625,0,-0.125,-0.0625,0.01806641,0.01025391,0.9790039,0.5820313,-0.9350586,-2.929688
2626,0,0,0,-0.001464844,0.01025391,1.026367,0.5820313,-0.9350586,-2.929688
2630,0,0.0625,0.0625,0.01416016,0.006347656,0.9750977,0.5844727,-0.9453125,-2.929688
2631,0.0625,0.0625,0,0.005859375,0.01025391,1.010742,0.5844727,-0.9453125,-2.929688
2635,0.125,0.0625,0,0.01416016,-0.01318359,0.9990234,0.5844727,-0.9453125,-2.929688
2636,0,-0.0625,0,0.001953125,0.002441406,0.9951172,0.5844727,-0.9453125,-2.929688
2640,0.0625,0.125,-0.1875,0.001953125,-0.0009765625,0.9790039,0.5922852,-0.9301758,-2.922363
2641,0,-0.0625,0.1875,0.01025391,0.02246094,1.010742,0.5922852,-0.9301758,-2.922363
2645,0,0.0625,0,-0.001464844,0.01025391,0.9990234,0.5922852,-0.9301758,-2.922363
2646,0,0,0,0.005859375,0.02636719,1.00293,0.5820313,-0.9428711,-2.935059
2650,0.125,0,-0.0625,0.01806641,0.01416016,0.9833984,0.5820313,-0.9428711,-2.935059
2651,-0.125,0,0,0.005859375,-0.005371094,0.9750977,0.5820313,-0.9428711,-2.935059
2655,-0.0625,-0.125,0.0625,-0.001464844,-0.01318359,0.9833984,0.5766602,-0.9301758,-2.927246
2656,0.25,0.125,-0.0625,0.02197266,0.002441406,0.9912109,0.5766602,-0.9301758,-2.927246
2660,0,-0.0625,0.0625,-0.001464844,0.03417969,1.018555,0.5766602,-0.9301758,-2.927246
2661,0.1875,0,0,0.01806641,-0.01318359,0.9833984,0.5766602,-0.9301758,-2.927246
2665,-0.0625,0,0,0.001953125,0.006347656,0.9951172,0.5844727,-0.9301758,-2.942871
2666,0.0625,0.1875,0,0.005859375,0.002441406,1.00293,0.5844727,-0.9301758,-2.942871
2670,0.0625,0,0,0.02197266,0.006347656,1.010742,0.5844727,-0.9301758,-2.942871
2671,0.0625,0,0,0.01416016,0.02246094,0.9912109,0.5820313,-0.9477539,-2.927246
2675,0,0,0,-0.001464844,0.01855469,0.9912109,0.5820313,-0.9477539,-2.927246
2676,0.25,0,-0.125,0.02197266,-0.005371094,1.014648,0.5820313,-0.9477539,-2.927246
2680,0.0625,0,0,0.01416016,0.002441406,0.9873047,0.5791016,-0.9428711,-2.94043
2681,0.0625,-0.0625,-0.0625,-0.001464844,0.002441406,1.00293,0.5791016,-0.9428711,-2.94043
2685,0,0.1875,-0.0625,-0.001464844,0.01025391,0.9912109,0.5791016,-0.9428711,-2.94043
2686,-0.0625,0,-0.125,0.01806641,0.01025391,1.010742,0.5791016,-0.9428711,-2.94043
2690,0,-0.0625,0.125,0.01025391,0.03027344,0.9912109,0.5898438,-0.9404297,-2.927246
2693,0,0,0,0.005859375,0.02246094,0.9912109,0.5898438,-0.9404297,-2.927246
2697,-0.0625,0.0625,0,0.01416016,-0.005371094,0.9912109,0.5898438,-0.9404297,-2.927246
2698,0,0,-0.125,0.02197266,0.01855469,0.9833984,0.5844727,-0.9428711,-2.927246
2702,-0.0625,-0.0625,-0.125,-0.001464844,0.006347656,1.010742,0.5844727,-0.9428711,-2.927246
2703,0.0625,0,0,0.01025391,0.006347656,1.006836,0.5844727,-0.9428711,-2.927246
2707,0,0,-0.1875,0.02197266,0.002441406,0.9951172,0.5844727,-0.9428711,-2.927246
2708,0.125,0,-0.0625,0.01416016,0.006347656,1.006836,0.5844727,-0.9428711,-2.927246
2712,0,0,0.125,0.005859375,0.006347656,1.006836,0.5844727,-0.9428711,-2.927246
2713,0,0,0,-0.01318359,-0.005371094,0.9912109,0.5844727,-0.9428711,-2.927246
2717,-0.0625,0.1875,0,0.01025391,0.03417969,1.022461,0.5820313,-0.9326172,-2.932617
2718,0,0.0625,0.125,-0.009277344,0.02246094,1.010742,0.5820313,-0.9326172,-2.932617
2722,0.1875,0.0625,0.125,0.005859375,0.02636719,0.9951172,0.5820313,-0.9326172,-2.932617
2723,0,-0.1875,-0.0625,-0.005371094,0.01416016,0.9873047,0.5820313,-0.9477539,-2.932617
2727,0.0625,0.0625,0,0.02197266,0.02636719,1.006836,0.5820313,-0.9477539,-2.932617
2728,0,-0.0625,0.0625,-0.001464844,-0.0009765625,0.9990234,0.5820313,-0.9477539,-2.932617
2732,0.0625,-0.125,0,0.01416016,0.006347656,1.00293,0.5820313,-0.9477539,-2.932617
2733,0,0,0,0.01416016,0.01855469,1.010742,0.5844727,-0.9404297,-2.922363
2737,0.0625,-0.0625,0,-0.001464844,0.03027344,0.9951172,0.5844727,-0.9404297,-2.922363
2738,0,0,0.125,-0.02539063,0.01855469,0.9833984,0.5844727,-0.9404297,-2.922363
2742,0.0625,0.0625,0.0625,-0.009277344,0.01025391,0.9951172,0.5820313,-0.9350586,-2.922363
2743,-0.1875,-0.25,0,0.001953125,0.01025391,1.014648,0.5820313,-0.9350586,-2.922363
2747,0.0625,0.25,0.0625,0.02197266,0.01025391,1.010742,0.5820313,-0.9350586,-2.922363
2748,0,-0.0625,0,-0.01318359,0.002441406,1.018555,0.5844727,-0.9428711,-2.927246
2752,-0.1875,0,0.0625,0.01416016,0.02636719,0.9990234,0.5844727,-0.9428711,-2.927246
2753,0.125,0,0,0.02197266,-0.0009765625,1.010742,0.5844727,-0.9428711,-2.927246
2757,0,-0.125,0,0.01806641,-0.005371094,0.9750977,0.5844727,-0.9428711,-2.927246
2758,0.0625,-0.0625,-0.125,0.01025391,0.002441406,1.006836,0.5898438,-0.9350586,-2.927246
2762,-0.125,0,0,0.005859375,0.01416016,1.00293,0.5898438,-0.9350586,-2.927246
2763,0.0625,-0.1875,-0.0625,0.01025391,0.002441406,1.010742,0.5898438,-0.9350586,-2.927246
2767,0,0,-0.125,0.01025391,0.006347656,0.9951172,0.5844727,-0.9379883,-2.932617
2768,0.0625,-0.125,0,0.02587891,0.01855469,0.9951172,0.5844727,-0.9379883,-2.932617
2772,0,-0.0625,0.0625,0.001953125,-0.009277344,0.9990234,0.5844727,-0.9379883,-2.932617
2773,0,0.0625,-0.0625,0.001953125,0.02246094,0.9951172,0.5898438,-0.9404297,-2.922363
2777,0,0.125,-0.1875,0.01025391,0.006347656,1.010742,0.5898438,-0.9404297,-2.922363
2778,0,0,-0.125,0.01416016,-0.0009765625,1.010742,0.5898438,-0.9404297,-2.922363
2782,0,0.125,0.125,0.005859375,0.02636719,0.9833984,0.5898438,-0.9404297,-2.922363
2783,-0.0625,-0.0625,-0.1875,0.005859375,0.02636719,0.9951172,0.5820313,-0.9301758,-2.932617
2787,0.0625,0,0,0.005859375,0.01855469,0.9990234,0.5820313,-0.9301758,-2.932617
2788,0,0.0625,0.1875,0.01416016,0.006347656,1.010742,0.5820313,-0.9301758,-2.932617
2792,0,0.125,0,0.005859375,0.006347656,0.9990234,0.5869141,-0.9301758,-2.932617
2793,0.0625,-0.1875,-0.0625,0.02197266,0.01025391,0.9951172,0.5869141,-0.9301758,-2.932617
2797,0,0,0,0.001953125,0.02636719,1.00293,0.5869141,-0.9301758,-2.932617
2798,0,-0.125,-0.125,-0.001464844,0.02636719,1.00293,0.5869141,-0.9301758,-2.932617
2802,0,0.0625,-0.0625,0.01806641,0.006347656,1.00293,0.5869141,-0.9301758,-2.932617
2803,-0.125,-0.0625,0,0.001953125,0.03027344,0.9750977,0.5869141,-0.9301758,-2.932617
2807,0,0,0.125,-0.001464844,-0.005371094,0.9990234,0.5869141,-0.9301758,-2.932617
2808,0,-0.1875,0,0.01025391,0.01855469,0.9951172,0.5898438,-0.9379883,-2.927246
2812,0.1875,0,0,0.01416016,0.02246094,0.9912109,0.5898438,-0.9379883,-2.927246
2813,0,0,0,0.005859375,-0.0009765625,0.9750977,0.5898438,-0.9379883,-2.927246
2817,0.0625,-0.0625,-0.0625,-0.001464844,0.03027344,0.9912109,0.5844727,-0.9301758,-2.9375
2818,0.0625,-0.0625,0,0.005859375,0.01025391,0.9951172,0.5844727,-0.9301758,-2.9375
2822,0.125,0,0,0.01416016,-0.01708984,0.9990234,0.5844727,-0.9301758,-2.9375
2823,-0.0625,-0.0625,0.0625,0.005859375,0.01416016,1.006836,0.5844727,-0.9301758,-2.9375
2827,0.125,0.125,-0.0625,0.01025391,0.01025391,0.9990234,0.5922852,-0.9404297,-2.919434
2828,-0.0625,0,0.0625,0.01416016,0.01025391,1.00293,0.5922852,-0.9404297,-2.919434
2832,0,-0.0625,0,0.02587891,0.006347656,0.9750977,0.5922852,-0.9404297,-2.919434
2833,0,0,-0.125,-0.001464844,0.006347656,1.00293,0.5820313,-0.9428711,-2.929688
2837,0,0,-0.125,0.01806641,0.02246094,1.010742,0.5820313,-0.9428711,-2.929688
2838,0,0.125,0,0.01416016,0.02636719,1.014648,0.5820313,-0.9428711,-2.929688
2842,0.0625,-0.3125,-0.0625,0.02978516,0.01025391,1.014648,0.5791016,-0.9350586,-2.922363
2843,0,0,0.125,0.01025391,0.02246094,1.010742,0.5791016,-0.9350586,-2.922363
2847,0,0,0.0625,0.03369141,0.01416016,0.9912109,0.5791016,-0.9350586,-2.922363
2848,0.0625,-0.1875,0,0.02587891,0.01416016,0.9951172,0.5791016,-0.9350586,-2.922363
2852,-0.125,0,0.125,-0.001464844,0.006347656,1.010742,0.5922852,-0.9428711,-2.924805
2854,0.0625,-0.1875,0,-0.02539063,0.006347656,1.010742,0.5922852,-0.9428711,-2.924805
2858,0,-0.0625,0.0625,0.01025391,0.01855469,0.9951172,0.5922852,-0.9428711,-2.924805
2859,0.0625,0.1875,0,0.01025391,0.006347656,0.9912109,0.5869141,-0.9379883,-2.927246
2863,-0.0625,-0.1875,0,0.02978516,0.01416016,0.9990234,0.5869141,-0.9379883,-2.927246
2864,0.25,0,-0.0625,0.01025391,0.006347656,1.010742,0.5869141,-0.9379883,-2.927246
2868,-0.125,-0.0625,0,-0.005371094,0.01025391,0.9990234,0.5766602,-0.9379883,-2.927246
2869,-0.125,0,0,-0.01708984,0.03027344,0.9990234,0.5766602,-0.9379883,-2.927246
2873,0,0.0625,0,0.005859375,0.006347656,1.00293,0.5766602,-0.9379883,-2.927246
2874,0,0,-0.0625,0.02587891,0.006347656,0.9990234,0.5766602,-0.9379883,-2.927246
2878,0.125,0.0625,-0.0625,-0.005371094,-0.009277344,0.9951172,0.5844727,-0.9428711,-2.932617
2879,0,0.0625,0.0625,0.01416016,0.01025391,1.010742,0.5844727,-0.9428711,-2.932617
2883,0,0,0,-0.009277344,0.03027344,1.014648,0.5844727,-0.9428711,-2.932617
2884,0.125,0,0,0.01025391,-0.0009765625,0.9790039,0.5922852,-0.9301758,-2.929688
2888,0.0625,-0.125,-0.1875,0.02587891,0.01025391,0.9951172,0.5922852,-0.9301758,-2.929688
2889,0.1875,0,-0.0625,-0.009277344,0.01416016,0.9990234,0.5922852,-0.9301758,-2.929688
2893,0,0.125,-0.0625,-0.01708984,0.02636719,0.9873047,0.5922852,-0.9301758,-2.929688
2894,0,-0.0625,-0.0625,0.01806641,-0.0009765625,1.00293,0.5922852,-0.9301758,-2.929688
2898,0,0.0625,-0.0625,0.02197266,0.01416016,0.9951172,0.5922852,-0.9301758,-2.929688
2899,0.125,0.0625,0,0.02197266,-0.0009765625,1.010742,0.5922852,-0.9301758,-2.929688
2903,0,0,0,-0.001464844,0.02246094,1.00293,0.5844727,-0.9350586,-2.927246
2904,0,-0.0625,0,0.01416016,0.002441406,1.00293,0.5844727,-0.9350586,-2.927246
2908,0.0625,0.125,0,0.02587891,-0.005371094,0.9951172,0.5844727,-0.9350586,-2.927246
2909,-0.0625,0,-0.0625,-0.005371094,0.01025391,0.9873047,0.5791016,-0.9428711,-2.924805
2913,0,0.0625,0,0.001953125,0.01025391,1.010742,0.5791016,-0.9428711,-2.924805
2914,-0.125,0.125,0,0.02197266,-0.0009765625,1.006836,0.5791016,-0.9428711,-2.924805
2918,0.0625,-0.0625,0,0.01806641,0.01025391,0.9912109,0.5791016,-0.9428711,-2.924805
2919,0.0625,0,-0.0625,0.01416016,0.02636719,0.9951172,0.5742188,-0.9404297,-2.916992
2923,0.0625,0,0,0.01025391,-0.005371094,0.9951172,0.5742188,-0.9404297,-2.916992
2924,-0.0625,0.0625,0.0625,-0.001464844,0.02246094,0.9990234,0.5742188,-0.9404297,-2.916992
2928,0.25,0.0625,-0.125,0.01025391,0.02246094,1.010742,0.5869141,-0.9428711,-2.932617
2929,0,-0.125,0,0.03369141,0.01025391,1.010742,0.5869141,-0.9428711,-2.932617
2933,0.375,0.0625,0.1875,0.01025391,0.01855469,1.010742,0.5869141,-0.9428711,-2.932617
2934,0,0.0625,0,0.005859375,0.01025391,1.010742,0.5742188,-0.9404297,-2.929688
2938,0,0,0,0.02978516,-0.0009765625,1.026367,0.5742188,-0.9404297,-2.929688
2939,0,0,0,-0.009277344,0.01025391,0.9951172,0.5742188,-0.9404297,-2.929688
2943,0,0.0625,0,0.005859375,0.03027344,0.9990234,0.5742188,-0.9404297,-2.929688
2944,0.125,0.0625,-0.1875,-0.001464844,0.01416016,0.9873047,0.5869141,-0.9350586,-2.932617
2948,0,-0.0625,0,0.01416016,0.01025391,0.9833984,0.5869141,-0.9350586,-2.932617
2949,0,0.125,0,0.005859375,0.02246094,0.9873047,0.5869141,-0.9350586,-2.932617
2953,-0.125,-0.1875,0,-0.005371094,0.01416016,0.9873047,0.5791016,-0.9404297,-2.9375
2954,0.0625,0.125,0,0.01806641,-0.005371094,0.9833984,0.5791016,-0.9404297,-2.9375
2958,-0.0625,0,0,-0.001464844,0.01855469,0.9833984,0.5791016,-0.9404297,-2.9375
2959,0.125,0,0.0625,0.01025391,0.002441406,1.00293,0.5869141,-0.9350586,-2.929688
2963,0,0,0,-0.009277344,0.01025391,1.018555,0.5869141,-0.9350586,-2.929688
2964,0.1875,0,0,0.01025391,-0.0009765625,1.014648,0.5869141,-0.9350586,-2.929688
2968,-0.1875,0,-0.1875,0.001953125,-0.0009765625,0.9951172,0.5869141,-0.9350586,-2.929688
2969,0,-0.0625,-0.0625,0.01416016,0.01416016,0.9912109,0.5742188,-0.9501953,-2.927246
2973,0,0,0.0625,0.01025391,0.02246094,0.9990234,0.5742188,-0.9501953,-2.927246
2974,0.1875,0,-0.0625,0.001953125,-0.01708984,0.9833984,0.5742188,-0.9501953,-2.927246
2978,0,0,-0.0625,-0.001464844,0.01025391,0.9951172,0.5820313,-0.9404297,-2.927246
2979,0,-0.1875,0,-0.005371094,0.01025391,0.9912109,0.5820313,-0.9404297,-2.927246
2983,-0.0625,0,0,0.01025391,0.01416016,0.9833984,0.5820313,-0.9404297,-2.927246
2984,0.0625,0,0.0625,0.01025391,0.03027344,1.00293,0.5820313,-0.9404297,-2.927246
2988,0,0,-0.0625,-0.005371094,0.006347656,0.9990234,0.5820313,-0.9404297,-2.927246
2989,0,0.125,0,-0.001464844,0.01855469,1.010742,0.5820313,-0.9404297,-2.927246
2993,0,0,0,-0.005371094,0.01025391,1.00293,0.5820313,-0.9404297,-2.927246
2994,0,0,0.125,0.005859375,0.02636719,0.9912109,0.5869141,-0.9453125,-2.929688
2998,-0.0625,-0.0625,0,0.01416016,0.02246094,0.9912109,0.5869141,-0.9453125,-2.929688
2999,0.1875,0,-0.0625,0.001953125,0.01025391,0.9873047,0.5869141,-0.9453125,-2.929688
3003,-0.0625,0,-0.0625,-0.001464844,0.01025391,0.9951172,0.5791016,-0.9350586,-2.927246
3004,0.1875,0.0625,-0.0625,0.01806641,0.002441406,0.9790039,0.5791016,-0.9350586,-2.927246
3008,0.1875,0.25,0.0625,0.01416016,0.01416016,0.9873047,0.5791016,-0.9350586,-2.927246
3009,0.125,-0.0625,0.0625,0.001953125,0.01416016,1.010742,0.5791016,-0.9350586,-2.927246
3013,0,-0.125,0.0625,0.005859375,0.01855469,0.9912109,0.5947266,-0.9350586,-2.922363
3015,-0.0625,0,0,0.02587891,0.01416016,0.9951172,0.5947266,-0.9350586,-2.922363
3019,0.0625,-0.0625,0,0.01416016,0.01025391,0.9990234,0.5947266,-0.9350586,-2.922363
3020,0,0,0,0.02197266,0.006347656,1.010742,0.5844727,-0.9277344,-2.916992
3024,0,0,0.125,0.01416016,-0.005371094,0.9833984,0.5844727,-0.9277344,-2.916992
3025,0,-0.125,-0.1875,0.03369141,0.01416016,0.9912109,0.5844727,-0.9277344,-2.916992
3029,-0.0625,0,0,0.001953125,0.006347656,1.014648,0.5766602,-0.9326172,-2.94043
3030,0,0.1875,0,0.01025391,-0.005371094,1.014648,0.5766602,-0.9326172,-2.94043
3034,0.125,0,0,0.01025391,0.006347656,0.9951172,0.5766602,-0.9326172,-2.94043
3035,-0.0625,0,-0.25,0.01025391,0.02636719,0.9951172,0.5766602,-0.9326172,-2.94043
3039,-0.0625,0,0,0.01806641,0.006347656,1.026367,0.5898438,-0.9350586,-2.927246
3040,0.125,0,0.0625,0.001953125,0.02636719,1.022461,0.5898438,-0.9350586,-2.927246
3044,0.0625,-0.1875,0,0.001953125,0.002441406,0.9951172,0.5898438,-0.9350586,-2.927246
3045,0,0.0625,0,-0.005371094,0.006347656,1.006836,0.5869141,-0.925293,-2.932617
3049,0.125,0.0625,-0.0625,0.005859375,0.006347656,1.010742,0.5869141,-0.925293,-2.932617
3050,-0.0625,0,0.125,0.001953125,0.02246094,0.9990234,0.5869141,-0.925293,-2.932617
3054,0,-0.125,-0.0625,0.02197266,0.01025391,1.010742,0.5869141,-0.9453125,-2.927246
3055,0.1875,-0.125,0,0.005859375,0.02636719,0.9951172,0.5869141,-0.9453125,-2.927246
3059,0.125,0.0625,-0.1875,-0.005371094,0.002441406,1.010742,0.5869141,-0.9453125,-2.927246
3060,0,0,0.125,0.02978516,0.01025391,1.00293,0.5869141,-0.9453125,-2.927246
3064,0.1875,0.0625,0.1875,0.01416016,0.02246094,1.010742,0.5898438,-0.9277344,-2.932617
3065,0.0625,0,0,0.01416016,0.002441406,1.00293,0.5898438,-0.9277344,-2.932617
3069,0,0.1875,0,0.005859375,0.002441406,0.9790039,0.5898438,-0.9277344,-2.932617
3070,0.0625,-0.1875,-0.0625,0.02197266,-0.009277344,0.9873047,0.5869141,-0.9428711,-2.927246
3074,0,0.0625,0,-0.001464844,0.02246094,1.010742,0.5869141,-0.9428711,-2.927246
3075,0.125,0,-0.0625,0.01025391,0.02636719,1.010742,0.5869141,-0.9428711,-2.927246
3079,-0.125,0,-0.125,0.01416016,0.03027344,0.9873047,0.5869141,-0.9428711,-2.927246
3080,0,0,0,0.01025391,0.01416016,0.9873047,0.5869141,-0.9428711,-2.927246
3084,0.125,0.0625,0.1875,0.02197266,0.01416016,1.014648,0.5869141,-0.9428711,-2.927246
3085,0.125,0,0,0.01025391,-0.005371094,1.00293,0.5869141,-0.9428711,-2.927246
3089,0.0625,0,-0.1875,-0.005371094,0.002441406,1.030273,0.5922852,-0.9453125,-2.929688
3090,0.125,0,0,0.01416016,0.002441406,1.010742,0.5922852,-0.9453125,-2.929688
3094,0.0625,-0.0625,0.1875,-0.001464844,0.01416016,1.006836,0.5922852,-0.9453125,-2.929688
3095,0.125,0.125,0,0.01416016,0.006347656,0.9873047,0.5717773,-0.9404297,-2.927246
3099,0.125,-0.125,0.0625,0.01806641,0.01416016,1.010742,0.5717773,-0.9404297,-2.927246
3100,0.1875,-0.0625,-0.0625,0.01416016,0.01025391,1.006836,0.5717773,-0.9404297,-2.927246
3104,-0.0625,0,0,0.01416016,0.006347656,1.010742,0.5717773,-0.9404297,-2.927246
3105,0.0625,0.125,0,0.005859375,0.006347656,1.006836,0.5869141,-0.9453125,-2.919434
3109,0.1875,-0.0625,0,0.01025391,0.01416016,0.9951172,0.5869141,-0.9453125,-2.919434
3110,0.25,0.25,0.0625,0.01416016,0.01416016,1.010742,0.5869141,-0.9453125,-2.919434
3114,0.125,0,-0.125,0.005859375,0.01025391,1.010742,0.5869141,-0.9301758,-2.932617
3115,0.125,0,-0.0625,0.001953125,0.03027344,0.9833984,0.5869141,-0.9301758,-2.932617
3119,0,0,-0.125,-0.001464844,0.02636719,0.9990234,0.5869141,-0.9301758,-2.932617
3120,0,0.0625,0,-0.009277344,0.006347656,0.9990234,0.5820313,-0.9404297,-2.94043
3124,0,0,0.125,-0.001464844,0.01855469,1.018555,0.5820313,-0.9404297,-2.94043
3125,0.0625,0.25,-0.0625,0.01806641,-0.0009765625,0.9912109,0.5820313,-0.9404297,-2.94043
3129,0,0,0.125,0.001953125,0.006347656,1.010742,0.5820313,-0.9404297,-2.94043
3130,0,-0.125,-0.1875,-0.005371094,0.002441406,0.9951172,0.5869141,-0.9326172,-2.927246
3134,-0.0625,0.0625,-0.125,0.01025391,0.01025391,0.9912109,0.5869141,-0.9326172,-2.927246
3135,-0.0625,-0.0625,-0.0625,0.01416016,0.01855469,0.9951172,0.5869141,-0.9326172,-2.927246
3139,0.0625,0,0,0.02587891,-0.005371094,0.9833984,0.5922852,-0.9379883,-2.927246
3140,0,0.125,0,-0.005371094,0.03027344,0.9951172,0.5922852,-0.9379883,-2.927246
3144,-0.0625,0,-0.0625,-0.001464844,0.006347656,0.9951172,0.5922852,-0.9379883,-2.927246
3145,0.0625,-0.0625,0,0.02197266,-0.005371094,0.9750977,0.5742188,-0.9477539,-2.929688
3149,0,0,0.125,0.01806641,0.02636719,1.00293,0.5742188,-0.9477539,-2.929688
3150,0.125,0,0,-0.001464844,0.01416016,0.9833984,0.5742188,-0.9477539,-2.929688
3154,0.1875,0,-0.25,0.02587891,0.006347656,1.00293,0.5742188,-0.9477539,-2.929688
3155,-0.0625,0,0,0.01025391,0.04638672,0.9833984,0.5869141,-0.9350586,-2.929688
3159,0.0625,-0.0625,0,0.02197266,0.006347656,0.9990234,0.5869141,-0.9350586,-2.929688
3160,0,-0.0625,-0.1875,0.02587891,0.01025391,1.014648,0.5869141,-0.9350586,-2.929688
3164,0.0625,0,0,0.02197266,-0.005371094,1.010742,0.5844727,-0.9404297,-2.927246
3165,0,-0.0625,0,0.01025391,0.002441406,1.022461,0.5844727,-0.9404297,-2.927246
3169,0,-0.0625,-0.0625,0.02587891,0.002441406,0.9951172,0.5844727,-0.9404297,-2.927246
3170,0,0.125,0,0.01806641,0.03857422,0.9912109,0.5844727,-0.9404297,-2.927246
3174,0,0,-0.125,-0.005371094,0.01025391,1.018555,0.5844727,-0.9404297,-2.927246
3176,0,0,0,-0.005371094,0.01855469,0.9990234,0.5844727,-0.9404297,-2.927246
3180,0,-0.0625,0,0.01025391,-0.009277344,1.00293,0.5844727,-0.9404297,-2.927246
3181,-0.125,0,-0.125,0.01416016,0.01025391,0.9990234,0.5844727,-0.9379883,-2.927246
3185,0.25,-0.125,0,0.01806641,0.01025391,0.9833984,0.5844727,-0.9379883,-2.927246
3186,-0.1875,0.0625,-0.0625,0.01806641,0.01855469,0.9990234,0.5844727,-0.9379883,-2.927246
3190,0.1875,-0.0625,0,-0.001464844,0.002441406,1.014648,0.5922852,-0.9301758,-2.929688
3191,0,0.25,0.1875,0.02587891,0.02246094,0.9990234,0.5922852,-0.9301758,-2.929688
3195,-0.125,0,-0.0625,0.01025391,0.02246094,0.9912109,0.5922852,-0.9301758,-2.929688
3196,0,0,0,0.001953125,0.002441406,0.9750977,0.5922852,-0.9301758,-2.929688
3200,0.0625,0.0625,-0.0625,0.01806641,0.01025391,0.9790039,0.5820313,-0.9404297,-2.929688
3201,0.125,0,-0.25,0.01416016,0.02246094,1.018555,0.5820313,-0.9404297,-2.929688
3205,0,0,0.125,0.001953125,0.002441406,1.010742,0.5820313,-0.9404297,-2.929688
3206,0,-0.125,0,0.001953125,0.01855469,0.9833984,0.5844727,-0.9404297,-2.929688
3210,0.1875,-0.0625,-0.125,0.01806641,0.02246094,0.9951172,0.5844727,-0.9404297,-2.929688
3211,0,0.0625,0,-0.001464844,0.01855469,0.9951172,0.5844727,-0.9404297,-2.929688
3215,0.125,0,0,0.01416016,0.01416016,0.9912109,0.5844727,-0.9428711,-2.929688
3216,0.125,0.0625,-0.1875,0.01025391,0.01025391,0.9912109,0.5844727,-0.9428711,-2.929688
3220,-0.125,0.0625,-0.0625,0.01806641,0.02636719,0.9833984,0.5844727,-0.9428711,-2.929688
3221,0,0,0,0.005859375,0.01855469,1.010742,0.5844727,-0.9428711,-2.929688
3225,-0.0625,0.0625,0,0.02197266,0.02246094,1.010742,0.5869141,-0.9301758,-2.924805
3226,0,-0.0625,0,0.02587891,0.01416016,1.006836,0.5869141,-0.9301758,-2.924805
3230,0,0,-0.25,0.01416016,0.03417969,0.9833984,0.5869141,-0.9301758,-2.924805
3231,0.1875,0,-0.0625,0.01416016,0.01025391,1.00293,0.5844727,-0.9477539,-2.932617
3235,0,0,-0.125,0.01806641,0.01855469,0.9790039,0.5844727,-0.9477539,-2.932617
3236,0.125,-0.125,0,0.02197266,0.01855469,1.010742,0.5844727,-0.9477539,-2.932617
3240,0.0625,0,0.0625,-0.001464844,0.01025391,1.006836,0.5844727,-0.9379883,-2.932617
3241,0.125,0.0625,0.0625,0.01806641,-0.005371094,1.014648,0.5844727,-0.9379883,-2.932617
3245,-0.125,0,0.1875,-0.005371094,0.002441406,0.9873047,0.5844727,-0.9379883,-2.932617
3246,0.125,-0.125,-0.0625,0.01025391,0.02636719,1.00293,0.5844727,-0.9379883,-2.932617
3250,0,0.0625,-0.0625,0.01416016,0.03027344,0.9912109,0.5791016,-0.9301758,-2.924805
3251,-0.0625,0,-0.0625,0.01806641,0.002441406,0.9990234,0.5791016,-0.9301758,-2.924805
3255,0.125,0,0,-0.001464844,0.02636719,1.010742,0.5791016,-0.9301758,-2.924805
3256,0,0,0.125,0.02587891,0.01025391,1.006836,0.5791016,-0.9404297,-2.935059
3260,0.125,0,0,0.01416016,0.002441406,0.9990234,0.5791016,-0.9404297,-2.935059
3261,-0.0625,0.0625,0,-0.009277344,0.006347656,0.9990234,0.5791016,-0.9404297,-2.935059
3265,0.25,0,0.125,-0.005371094,-0.02490234,0.9990234,0.5791016,-0.9404297,-2.935059
3266,0.0625,-0.125,-0.0625,0.01025391,0.01025391,1.010742,0.5791016,-0.9404297,-2.935059
3270,0.0625,0,0.0625,-0.01318359,0.01416016,0.9990234,0.5791016,-0.9404297,-2.935059
3271,0,0,0,0.005859375,0.006347656,0.9833984,0.5791016,-0.9404297,-2.935059
3275,-0.125,-0.0625,0.0625,0.01025391,0.01025391,0.9912109,0.5844727,-0.9428711,-2.927246
3276,-0.125,0,-0.0625,-0.001464844,0.02636719,1.006836,0.5844727,-0.9428711,-2.927246
3280,0.0625,0.0625,-0.125,0.02197266,0.01855469,0.9990234,0.5844727,-0.9428711,-2.927246
3281,0.0625,0.0625,0,0.005859375,0.01025391,0.9990234,0.5947266,-0.9277344,-2.924805
3285,0,-0.0625,0.125,0.01025391,0.01855469,1.00293,0.5947266,-0.9277344,-2.924805
3286,0.0625,0.0625,0,0.01025391,-0.005371094,0.9912109,0.5947266,-0.9277344,-2.924805
3290,0,-0.0625,0,0.01416016,0.01025391,0.9990234,0.5947266,-0.9277344,-2.924805
3291,0.1875,0,0.125,-0.001464844,0.01855469,1.00293,0.5742188,-0.9326172,-2.924805
3295,0.0625,-0.0625,0,0.01025391,0.01025391,1.006836,0.5742188,-0.9326172,-2.924805
3296,0.0625,-0.125,0,0.03369141,0.02636719,0.9951172,0.5742188,-0.9326172,-2.924805
3300,0,-0.0625,0.125,0.001953125,0.01025391,0.9790039,0.5869141,-0.9404297,-2.927246
3301,0,0,-0.0625,0.01025391,-0.005371094,1.014648,0.5869141,-0.9404297,-2.927246
3305,0,0,0.3125,0.01416016,0.01416016,1.022461,0.5869141,-0.9404297,-2.927246
3306,0.125,-0.125,-0.0625,0.01416016,0.01025391,1.010742,0.5844727,-0.9350586,-2.935059
3310,-0.1875,0.0625,0,0.01806641,0.01855469,0.9990234,0.5844727,-0.9350586,-2.935059
3311,0.0625,-0.0625,0,0.01025391,0.006347656,0.9873047,0.5844727,-0.9350586,-2.935059
3315,0,0.0625,-0.0625,0.01806641,0.01416016,1.00293,0.5844727,-0.9350586,-2.935059
3316,-0.125,0.125,0,0.01025391,-0.0009765625,1.006836,0.6000977,-0.9428711,-2.929688
3320,0.3125,0,-0.0625,0.01025391,-0.005371094,1.006836,0.6000977,-0.9428711,-2.929688
3321,0,0,0.0625,0.01416016,0.02246094,1.00293,0.6000977,-0.9428711,-2.929688
3325,0.0625,-0.0625,-0.1875,-0.001464844,0.01855469,1.010742,0.5898438,-0.9350586,-2.914551
3326,-0.1875,0.0625,0,0.02978516,0.02246094,0.9990234,0.5898438,-0.9350586,-2.914551
3330,0.125,-0.0625,0,0.01025391,0.002441406,1.014648,0.5898438,-0.9350586,-2.914551
3331,0.125,0,-0.0625,0.01416016,0.006347656,0.9790039,0.5820313,-0.9326172,-2.94043
3335,0,0,0.0625,0.02587891,0.01025391,1.010742,0.5820313,-0.9326172,-2.94043
3338,0,0,0,0.005859375,-0.005371094,1.010742,0.5820313,-0.9326172,-2.94043
3342,0,0,-0.0625,0.005859375,0.002441406,1.010742,0.5820313,-0.9326172,-2.94043
3343,0.0625,0,0,0.01416016,0.01855469,0.9833984,0.5869141,-0.9379883,-2.927246
3347,0.125,0,0,-0.001464844,0.03027344,0.9790039,0.5869141,-0.9379883,-2.927246
3348,0.0625,0.0625,0,0.01025391,0.01025391,0.9951172,0.5869141,-0.9379883,-2.927246
3352,0.0625,-0.125,-0.0625,0.01806641,0.006347656,0.9990234,0.5791016,-0.9326172,-2.927246
3353,-0.0625,-0.0625,-0.0625,0.005859375,0.006347656,0.9790039,0.5791016,-0.9326172,-2.927246
3357,0.125,0,0,0.01025391,-0.005371094,1.010742,0.5791016,-0.9326172,-2.927246
3358,-0.125,0,0.125,0.001953125,0.006347656,0.9873047,0.5791016,-0.9326172,-2.927246
3362,-0.25,0.0625,-0.0625,0.01416016,0.01025391,1.018555,0.5791016,-0.9326172,-2.927246
3363,0.1875,0.0625,0.0625,0.005859375,0.002441406,0.9873047,0.5791016,-0.9326172,-2.927246
3367,-0.0625,0.0625,0,0.005859375,0.01025391,0.9990234,0.5791016,-0.9326172,-2.927246
3368,0,-0.0625,-0.0625,0.01806641,0.01025391,0.9912109,0.5844727,-0.9453125,-2.922363
3372,0.125,0.0625,0,0.005859375,0.01855469,0.9990234,0.5844727,-0.9453125,-2.922363
3373,0.0625,0,0,0.01025391,0.01025391,1.010742,0.5844727,-0.9453125,-2.922363
3377,0.125,-0.0625,0,0.01025391,0.03417969,1.018555,0.5820313,-0.9453125,-2.927246
3378,0,0,-0.125,0.001953125,0.02246094,1.014648,0.5820313,-0.9453125,-2.927246
3382,0,0,-0.0625,0.01416016,0.02246094,0.9951172,0.5820313,-0.9453125,-2.927246
3383,0,0.125,-0.0625,-0.001464844,0.01416016,0.9951172,0.5820313,-0.9453125,-2.927246
3387,0,0,0,0.01416016,0.01416016,1.014648,0.5869141,-0.9301758,-2.927246
3388,0.125,0,0,0.001953125,0.01025391,0.9951172,0.5869141,-0.9301758,-2.927246
3392,0.0625,0,-0.1875,0.005859375,0.006347656,1.026367,0.5869141,-0.9301758,-2.927246
3393,0,-0.0625,0.1875,0.01025391,0.01025391,1.006836,0.5820313,-0.9326172,-2.932617
3397,0,0,0.0625,0.005859375,0.02246094,1.010742,0.5820313,-0.9326172,-2.932617
3398,-0.125,-0.125,0,0.01416016,-0.0009765625,1.010742,0.5820313,-0.9326172,-2.932617
3402,0,0.125,-0.125,0.01416016,0.006347656,1.010742,0.5976563,-0.9379883,-2.927246
3403,0,0.125,0,0.001953125,0.01416016,1.00293,0.5976563,-0.9379883,-2.927246
3407,0,0.125,-0.25,0.01806641,0.01025391,1.010742,0.5976563,-0.9379883,-2.927246
3408,0.0625,0,0.125,-0.01318359,0.01025391,0.9711914,0.5976563,-0.9379883,-2.927246
3412,0,0.125,0.0625,0.01025391,0.01025391,0.9833984,0.5898438,-0.9379883,-2.929688
3413,0.125,0.0625,-0.0625,0.02978516,0.01025391,1.014648,0.5898438,-0.9379883,-2.929688
3417,0.0625,-0.0625,0,0.01025391,-0.01318359,1.00293,0.5898438,-0.9379883,-2.929688
3418,0,-0.125,-0.0625,0.01416016,0.01025391,1.018555,0.5869141,-0.9350586,-2.935059
3422,0.0625,0.0625,-0.125,0.005859375,0.01025391,0.9912109,0.5869141,-0.9350586,-2.935059
3423,-0.0625,0,0,0.01806641,0.01416016,0.9873047,0.5869141,-0.9350586,-2.935059
3427,0.125,-0.0625,-0.1875,0.02978516,0.01416016,0.9990234,0.5844727,-0.9326172,-2.935059
3428,-0.0625,0,0.0625,0.01416016,0.02636719,1.022461,0.5844727,-0.9326172,-2.935059
3432,0,-0.125,0.1875,0.001953125,-0.01318359,1.014648,0.5844727,-0.9326172,-2.935059
3433,0.0625,0,0.1875,0.01416016,-0.0009765625,1.00293,0.5844727,-0.9326172,-2.935059
3437,0,0,-0.0625,0.005859375,0.006347656,1.006836,0.5791016,-0.9379883,-2.929688
3438,0,-0.0625,0,0.01806641,0.01855469,1.010742,0.5791016,-0.9379883,-2.929688
3442,0,-0.0625,-0.1875,0.02978516,-0.0009765625,1.010742,0.5791016,-0.9379883,-2.929688
3443,0.1875,-0.0625,0,-0.001464844,0.02636719,1.00293,0.5820313,-0.9350586,-2.927246
3447,0.0625,-0.0625,0,0.01025391,0.006347656,0.9990234,0.5820313,-0.9350586,-2.927246
3448,0.1875,0,0,0.02587891,0.01025391,1.00293,0.5820313,-0.9350586,-2.927246
3452,-0.0625,0,-0.0625,0.005859375,0.01416016,0.9833984,0.5820313,-0.9350586,-2.927246
3453,0,0.0625,0.125,-0.005371094,-0.005371094,1.006836,0.5820313,-0.9350586,-2.927246
3457,-0.0625,-0.125,0,0.01416016,0.01416016,1.006836,0.5820313,-0.9350586,-2.927246
3458,0.0625,0.1875,-0.125,0.001953125,0.01855469,1.00293,0.5820313,-0.9350586,-2.927246
3462,-0.125,-0.1875,0.1875,0.01416016,0.002441406,0.9990234,0.5922852,-0.9404297,-2.924805
3463,0.0625,0,-0.1875,0.02197266,0.01025391,0.9833984,0.5922852,-0.9404297,-2.924805
3467,0.125,0.125,0.0625,0.01416016,0.002441406,0.9912109,0.5922852,-0.9404297,-2.924805
3468,-0.1875,0.0625,-0.0625,-0.01708984,0.04638672,0.9912109,0.5820313,-0.9326172,-2.924805
3472,0,0,0,0.001953125,0.002441406,1.010742,0.5820313,-0.9326172,-2.924805
3473,0.125,0,0,0.005859375,0.006347656,1.010742,0.5820313,-0.9326172,-2.924805
3477,0,0,-0.0625,0.001953125,0.006347656,1.026367,0.5820313,-0.9326172,-2.924805
3478,0.125,0.0625,0,-0.009277344,0.02246094,1.00293,0.5869141,-0.9301758,-2.919434
3482,0,-0.0625,-0.0625,0.01806641,0.006347656,1.006836,0.5869141,-0.9301758,-2.919434
3483,0,0.125,0.0625,0.001953125,0.01025391,0.9833984,0.5869141,-0.9301758,-2.919434
3487,0,0,-0.0625,0.01025391,0.01025391,0.9873047,0.5898438,-0.9453125,-2.929688
3488,0,0.1875,0,0.01025391,0.03417969,1.010742,0.5898438,-0.9453125,-2.929688
3492,0.0625,0,-0.1875,0.01025391,0.02246094,0.9833984,0.5898438,-0.9453125,-2.929688
3493,0,-0.0625,0.0625,0.005859375,0.01855469,0.9951172,0.5820313,-0.9379883,-2.932617
3497,0.0625,0,0,0.04199219,0.01416016,1.010742,0.5820313,-0.9379883,-2.932617
3499,-0.0625,0,-0.0625,0.01806641,0.006347656,1.018555,0.5820313,-0.9379883,-2.932617
3503,0.0625,-0.1875,-0.0625,-0.009277344,0.01855469,0.9873047,0.5820313,-0.9379883,-2.932617
3504,0,0.125,0.0625,0.04199219,0.01025391,1.014648,0.5844727,-0.9428711,-2.932617
3508,0,0,0.0625,-0.005371094,0.01025391,0.9790039,0.5844727,-0.9428711,-2.932617
3509,0.125,0.125,0,0.01806641,-0.01318359,1.00293,0.5844727,-0.9428711,-2.932617
3513,-0.0625,0,0,-0.01708984,0.01855469,0.9951172,0.5947266,-0.9428711,-2.929688
3514,0.0625,-0.125,0,-0.001464844,-0.005371094,0.9873047,0.5947266,-0.9428711,-2.929688
3518,0.0625,-0.0625,0,0.005859375,0.01855469,1.014648,0.5947266,-0.9428711,-2.929688
3519,-0.125,0,0,-0.009277344,0.006347656,0.9750977,0.5844727,-0.9379883,-2.919434
3523,0,0.0625,-0.125,0.02197266,0.01025391,0.9912109,0.5844727,-0.9379883,-2.919434
3524,0,0,0.125,0.02197266,0.01855469,1.018555,0.5844727,-0.9379883,-2.919434
3528,0.0625,0.125,0.0625,0.001953125,0.01025391,1.026367,0.5844727,-0.9379883,-2.919434
3529,0.125,0,-0.0625,0.02587891,0.02246094,0.9873047,0.5869141,-0.9350586,-2.924805
3533,0.0625,0,-0.125,0.01806641,0.01416016,1.010742,0.5869141,-0.9350586,-2.924805
3534,0,0,0,-0.001464844,0.01855469,0.9990234,0.5869141,-0.9350586,-2.924805
3538,0,0,-0.0625,0.005859375,0.006347656,1.010742,0.5947266,-0.9379883,-2.929688
3539,-0.0625,-0.125,0,0.01025391,0.006347656,1.010742,0.5947266,-0.9379883,-2.929688
3543,0.1875,-0.125,0,-0.001464844,0.01416016,0.9790039,0.5947266,-0.9379883,-2.929688
3544,0,0.0625,0.0625,-0.001464844,0.006347656,1.010742,0.5947266,-0.9379883,-2.929688
3548,0,0,0,0.005859375,0.03027344,1.010742,0.5947266,-0.9379883,-2.929688
3549,0.125,0.0625,0,0.01025391,0.01025391,1.006836,0.5947266,-0.9379883,-2.929688
3553,0.0625,0,0,-0.001464844,0.01025391,0.9990234,0.5947266,-0.9379883,-2.929688
3554,0.0625,0.0625,0.0625,0.01025391,0.03417969,1.006836,0.5844727,-0.9428711,-2.929688
3558,-0.0625,-0.1875,-0.0625,-0.001464844,0.01025391,1.00293,0.5844727,-0.9428711,-2.929688
3559,-0.1875,0,-0.0625,0.02587891,0.002441406,0.9951172,0.5844727,-0.9428711,-2.929688
3563,0.0625,0,0,0.01025391,0.01025391,1.00293,0.5742188,-0.9350586,-2.927246
3564,0.0625,0.0625,0.0625,0.01806641,-0.005371094,0.9951172,0.5742188,-0.9350586,-2.927246
3568,0,0,-0.0625,0.01025391,0.01025391,0.9951172,0.5742188,-0.9350586,-2.927246
3569,-0.0625,0.0625,0,-0.01318359,0.006347656,1.006836,0.5742188,-0.9350586,-2.927246
3573,0,-0.0625,-0.125,0.01416016,0.01855469,1.010742,0.5844727,-0.9428711,-2.927246
3574,0,-0.0625,0,0.005859375,0.01416016,1.010742,0.5844727,-0.9428711,-2.927246
3578,0.0625,0,-0.1875,-0.001464844,-0.005371094,1.010742,0.5844727,-0.9428711,-2.927246
3579,0,-0.0625,0,-0.001464844,0.01025391,1.006836,0.5844727,-0.9350586,-2.932617
3583,0,-0.0625,0,0.01025391,0.03857422,0.9833984,0.5844727,-0.9350586,-2.932617
3584,0.1875,0,-0.0625,-0.005371094,0.01416016,0.9790039,0.5844727,-0.9350586,-2.932617
3588,-0.0625,-0.0625,-0.0625,0.01025391,0.01025391,1.014648,0.5844727,-0.9453125,-2.924805
3589,0,-0.0625,0,-0.005371094,0.01025391,0.9951172,0.5844727,-0.9453125,-2.924805
3593,-0.125,0,-0.1875,-0.005371094,-0.0009765625,0.9873047,0.5844727,-0.9453125,-2.924805
3594,0.25,-0.25,-0.0625,0.01806641,0.01025391,0.9750977,0.5844727,-0.9453125,-2.924805
3598,-0.0625,-0.25,-0.1875,0.005859375,0.01855469,0.9990234,0.5947266,-0.9453125,-2.922363
3599,0.0625,0,-0.0625,-0.005371094,0.01025391,0.9951172,0.5947266,-0.9453125,-2.922363
3603,0,0,0,0.005859375,0.006347656,1.014648,0.5947266,-0.9453125,-2.922363
3604,0.0625,0,-0.125,0.01806641,0.02636719,0.9951172,0.5869141,-0.9326172,-2.924805
3608,0,0,0,0.01806641,0.006347656,0.9951172,0.5869141,-0.9326172,-2.924805
3609,0,0,0,-0.005371094,0.01025391,1.006836,0.5869141,-0.9326172,-2.924805
3613,-0.0625,0,0,0.01416016,0.02636719,1.006836,0.5742188,-0.9379883,-2.929688
3614,0.0625,0,-0.0625,0.01025391,0.01855469,1.00293,0.5742188,-0.9379883,-2.929688
3618,0,-0.1875,0,-0.009277344,0.03417969,0.9912109,0.5742188,-0.9379883,-2.929688
3619,-0.0625,0,0,0.01416016,0.006347656,1.006836,0.5742188,-0.9379883,-2.929688
3623,-0.0625,0,0,0.001953125,-0.0009765625,0.9990234,0.5844727,-0.9428711,-2.922363
3624,0,0.125,0,0.005859375,0.01025391,1.018555,0.5844727,-0.9428711,-2.922363
3628,0,-0.0625,0,0.001953125,0.03027344,1.022461,0.5844727,-0.9428711,-2.922363
3629,0,0,-0.125,0.005859375,0.02636719,1.006836,0.5869141,-0.9428711,-2.927246
3633,0,0.0625,0.125,-0.001464844,0.01855469,1.014648,0.5869141,-0.9428711,-2.927246
3634,0.125,0,-0.0625,0.01416016,0.01855469,0.9912109,0.5869141,-0.9428711,-2.927246
3638,0,0,0,0.01416016,-0.005371094,0.9873047,0.5869141,-0.9428711,-2.927246
3639,0,-0.125,-0.1875,0.005859375,0.01025391,1.006836,0.5869141,-0.9428711,-2.927246
3643,0.125,0.0625,-0.125,0.005859375,0.01025391,0.9951172,0.5869141,-0.9428711,-2.927246
3644,0,0,0.0625,0.02587891,0.006347656,0.9833984,0.5869141,-0.9428711,-2.927246
3648,0,0.0625,-0.0625,0.01025391,0.01025391,1.010742,0.5869141,-0.9404297,-2.932617
3649,0.125,-0.0625,0.0625,0.001953125,0.02636719,0.9790039,0.5869141,-0.9404297,-2.932617
3653,0,0,0.0625,0.02587891,0.006347656,1.006836,0.5869141,-0.9404297,-2.932617
3654,0,0,0,0.01416016,0.01416016,0.9990234,0.5742188,-0.9326172,-2.9375
3658,0.1875,0.0625,0,0.005859375,0.006347656,0.9990234,0.5742188,-0.9326172,-2.9375
3660,-0.25,-0.1875,-0.0625,0.01025391,0.02636719,0.9873047,0.5742188,-0.9326172,-2.9375
3664,0.0625,0,0.125,0.01025391,0.01855469,1.010742,0.5742188,-0.9326172,-2.9375
3665,0,0,0,0.01806641,0.01025391,0.9912109,0.5844727,-0.9428711,-2.924805
3669,0.0625,-0.125,0.0625,-0.001464844,0.006347656,0.9990234,0.5844727,-0.9428711,-2.924805
3670,0.25,0,0,-0.001464844,0.02246094,0.9990234,0.5844727,-0.9428711,-2.924805
3674,0,-0.0625,0,0.02197266,0.02246094,0.9951172,0.5820313,-0.9453125,-2.927246
3675,-0.0625,0,0,0.005859375,0.01025391,1.00293,0.5820313,-0.9453125,-2.927246
3679,0,0.125,-0.125,0.001953125,0.01025391,0.9912109,0.5820313,-0.9453125,-2.927246
3680,-0.0625,0.0625,0.0625,0.01025391,0.002441406,0.9873047,0.5820313,-0.9350586,-2.932617
3684,0.0625,0.0625,0.0625,-0.001464844,0.01025391,0.9790039,0.5820313,-0.9350586,-2.932617
3685,0.125,-0.0625,0,0.01806641,0.01025391,0.9951172,0.5820313,-0.9350586,-2.932617
3689,0,-0.0625,0.0625,0.01806641,-0.01318359,1.026367,0.5820313,-0.9350586,-2.932617
3690,0.125,0.125,-0.0625,0.005859375,0.002441406,1.010742,0.5922852,-0.9453125,-2.922363
3694,-0.125,0,0,0.01806641,0.01025391,1.00293,0.5922852,-0.9453125,-2.922363
3695,0.125,0,-0.0625,0.01025391,0.01025391,0.9990234,0.5922852,-0.9453125,-2.922363
3699,-0.0625,-0.0625,0,0.01416016,-0.0009765625,1.00293,0.5869141,-0.9326172,-2.929688
3700,-0.125,0.125,0,0.01416016,0.01416016,1.010742,0.5869141,-0.9326172,-2.929688
3704,0,-0.0625,0.0625,0.02978516,0.002441406,1.006836,0.5869141,-0.9326172,-2.929688
3705,-0.0625,0.125,0.0625,0.01416016,0.006347656,1.014648,0.5898438,-0.9428711,-2.935059
3709,0.1875,0,-0.0625,0.01806641,0.01025391,0.9912109,0.5898438,-0.9428711,-2.935059
3710,0,0,0,0.01806641,0.01855469,0.9750977,0.5898438,-0.9428711,-2.935059
3714,0.1875,0.125,-0.0625,-0.005371094,0.006347656,1.010742,0.5898438,-0.9428711,-2.935059
3715,-0.0625,-0.0625,0.0625,0.01416016,0.01025391,0.9833984,0.5820313,-0.9301758,-2.924805
3719,0,0.125,-0.0625,-0.001464844,0.01855469,1.00293,0.5820313,-0.9301758,-2.924805
3720,-0.125,-0.125,0.0625,0.01416016,0.01025391,0.9912109,0.5820313,-0.9301758,-2.924805
3724,0.25,-0.0625,0,0.03369141,0.006347656,0.9951172,0.5869141,-0.9404297,-2.942871
3725,-0.0625,-0.0625,-0.0625,0.01025391,-0.0009765625,0.9951172,0.5869141,-0.9404297,-2.942871
3729,0,0,-0.0625,0.01025391,0.01025391,1.006836,0.5869141,-0.9404297,-2.942871
3730,-0.125,0,-0.0625,0.01416016,-0.0009765625,0.9990234,0.5869141,-0.9404297,-2.942871
3734,0.0625,-0.125,0.0625,0.005859375,0.02246094,0.9951172,0.5869141,-0.9404297,-2.942871
3735,0,0,0,0.02197266,0.006347656,0.9873047,0.5869141,-0.9404297,-2.942871
3739,0,-0.0625,-0.0625,0.005859375,-0.0009765625,1.018555,0.5869141,-0.9404297,-2.942871
3740,0.0625,-0.125,-0.3125,-0.005371094,0.01025391,0.9750977,0.5844727,-0.9404297,-2.924805
3744,0,-0.0625,0.0625,0.02587891,0.02636719,1.018555,0.5844727,-0.9404297,-2.924805
3745,0.0625,0,-0.0625,0.01416016,0.002441406,0.9833984,0.5844727,-0.9404297,-2.924805
3749,0,-0.0625,0.125,0.01416016,-0.005371094,0.9912109,0.5898438,-0.9301758,-2.932617
