Packet Number,Gyroscope X (deg/s),Gyroscope Y (deg/s),Gyroscope Z (deg/s),Accelerometer X (g),Accelerometer Y (g),Accelerometer Z (g),Magnetometer X (G),Magnetometer Y (G),Magnetometer Z (G)
69,-0.3125,-0.3125,-0.1875,-0.03466797,-0.007324219,0.9672852,-0.1806641,-0.04980469,-0.3720703
71,-0.3125,-0.3125,-0.1875,-0.03466797,-0.007324219,0.9672852,-0.1806641,-0.04980469,-0.3720703
73,-0.0625,0,0.1875,-0.03076172,0.01513672,0.9594727,-0.1831055,-0.04003906,-0.3642578
75,-0.4375,-0.0625,0.125,-0.02685547,0.02685547,0.9868164,-0.1831055,-0.04003906,-0.3642578
77,-0.25,0,-0.0625,-0.03076172,0.01904297,0.9750977,-0.1831055,-0.04003906,-0.3720703
79,-0.375,0.125,0.0625,-0.01513672,0.01513672,0.9711914,-0.1831055,-0.04003906,-0.3720703
81,-0.0625,0,-0.0625,-0.007324219,0.01513672,0.9672852,-0.1831055,-0.04003906,-0.3720703
83,-0.125,0.0625,-0.125,-0.04638672,-0.01123047,0.9672852,-0.1831055,-0.04003906,-0.3720703
85,-0.125,-0.1875,-0.0625,-0.02294922,-0.007324219,0.9750977,-0.1733398,-0.04980469,-0.3774414
87,0.0625,0,0,-0.03857422,0.01513672,0.9633789,-0.1733398,-0.04980469,-0.3774414
89,-0.1875,0.1875,0.125,-0.01513672,-0.01123047,0.9829102,-0.1733398,-0.04980469,-0.3774414
91,-0.0625,0,0.0625,-0.02294922,0.01513672,0.9594727,-0.1782227,-0.04492188,-0.3618164
93,-0.1875,-0.0625,0,-0.03076172,0.01123047,0.9672852,-0.1782227,-0.04492188,-0.3618164
95,-0.4375,0,0.0625,-0.03076172,0.01513672,0.9516602,-0.1782227,-0.04492188,-0.3618164
97,-0.125,0,0,-0.04638672,0,0.9438477,-0.1733398,-0.04248047,-0.3671875
99,-0.25,0,-0.0625,-0.01904297,0.003417969,0.9555664,-0.1733398,-0.04248047,-0.3671875
101,-0.25,-0.1875,-0.0625,-0.03076172,0,0.9790039,-0.1733398,-0.04248047,-0.3671875
103,-0.1875,-0.125,0,-0.02685547,0.02294922,0.9594727,-0.1733398,-0.04248047,-0.3671875
105,-0.0625,0.0625,0.125,-0.03076172,0.01904297,0.9438477,-0.1733398,-0.04248047,-0.3774414
107,-0.25,-0.0625,0.1875,-0.03076172,0.02294922,0.9672852,-0.1733398,-0.04248047,-0.3774414
109,-0.1875,0.125,0.0625,-0.01513672,-0.003417969,0.9672852,-0.1733398,-0.04248047,-0.3774414
111,-0.3125,-0.1875,-0.0625,-0.01123047,0.01904297,0.9711914,-0.1708984,-0.04980469,-0.3696289
113,-0.125,0,-0.0625,-0.02294922,0.01513672,0.9438477,-0.1708984,-0.04980469,-0.3696289
115,-0.3125,-0.125,-0.1875,-0.01513672,-0.003417969,0.9633789,-0.1708984,-0.04980469,-0.3696289
117,-0.125,0,0.0625,-0.02294922,0.007324219,0.9516602,-0.1708984,-0.04980469,-0.3696289
119,-0.25,0,-0.3125,-0.02294922,0.01123047,0.9672852,-0.1708984,-0.04980469,-0.3696289
121,-0.25,-0.0625,0.0625,-0.02294922,-0.01123047,0.9672852,-0.1708984,-0.04980469,-0.3696289
123,-0.3125,-0.0625,0.0625,0,0.01904297,0.9282227,-0.1708984,-0.04980469,-0.3696289
125,-0.4375,0,0.125,-0.03076172,0.01123047,0.9672852,-0.1733398,-0.04248047,-0.3642578
127,-0.3125,-0.1875,0,-0.02685547,0.02294922,0.9555664,-0.1733398,-0.04248047,-0.3642578
129,-0.3125,0,0,-0.01904297,0.01123047,0.9321289,-0.1733398,-0.04248047,-0.3642578
131,-0.25,0.125,0.0625,-0.04248047,-0.007324219,0.9477539,-0.1708984,-0.04492188,-0.3774414
133,-0.1875,-0.0625,-0.0625,-0.01904297,0.003417969,0.9711914,-0.1708984,-0.04492188,-0.3774414
135,-0.25,0.0625,0.1875,-0.02294922,0.01513672,0.9438477,-0.1708984,-0.04492188,-0.3774414
137,-0.375,0.0625,0,-0.02294922,0.003417969,0.9672852,-0.1708984,-0.04492188,-0.3774414
139,-0.1875,0,0.0625,-0.03076172,0,0.9672852,-0.1708984,-0.04492188,-0.3774414
141,-0.1875,-0.1875,0.125,-0.03076172,0.003417969,0.9672852,-0.1708984,-0.04492188,-0.3774414
143,-0.375,0.125,-0.125,-0.02294922,0.02294922,0.9672852,-0.1708984,-0.04492188,-0.3774414
145,-0.25,0.125,0,-0.03076172,0,0.9750977,-0.1831055,-0.04492188,-0.3696289
147,-0.125,-0.25,-0.25,-0.01904297,0.01123047,0.9438477,-0.1831055,-0.04492188,-0.3696289
149,-0.25,0.0625,0.0625,-0.01904297,0.003417969,0.9711914,-0.1831055,-0.04492188,-0.3696289
151,-0.25,-0.25,0.125,-0.01513672,0.01513672,0.9790039,-0.1806641,-0.04248047,-0.3618164
153,-0.5,0.0625,0.125,-0.01904297,0,0.9829102,-0.1806641,-0.04248047,-0.3618164
155,-0.3125,0,0.0625,-0.03466797,0.01904297,0.9477539,-0.1806641,-0.04248047,-0.3618164
157,-0.1875,-0.0625,0.125,-0.02294922,0.003417969,0.9750977,-0.1806641,-0.04248047,-0.3618164
159,-0.25,-0.125,0.0625,-0.03076172,0.003417969,0.9711914,-0.1757813,-0.04248047,-0.3642578
161,-0.1875,0,0,-0.02294922,0,0.9829102,-0.1757813,-0.04248047,-0.3642578
163,-0.3125,0.1875,0,-0.03076172,0.003417969,0.9516602,-0.1757813,-0.04248047,-0.3642578
165,-0.3125,0,0.125,-0.01904297,0.003417969,0.9672852,-0.1757813,-0.04736328,-0.3696289
167,0,-0.0625,0,-0.02294922,0,0.9594727,-0.1757813,-0.04736328,-0.3696289
169,-0.5,0,0.125,-0.01513672,0.01513672,0.9672852,-0.1757813,-0.04736328,-0.3696289
171,-0.1875,0,0.125,-0.007324219,0.01513672,0.9672852,-0.1733398,-0.04736328,-0.3774414
173,-0.0625,-0.0625,-0.0625,-0.01123047,-0.003417969,0.9555664,-0.1733398,-0.04736328,-0.3774414
175,-0.375,0,0.0625,-0.03076172,0.007324219,0.9438477,-0.1733398,-0.04736328,-0.3774414
177,-0.25,0,0.0625,-0.03076172,0.01123047,0.9711914,-0.1733398,-0.04736328,-0.3774414
179,-0.125,-0.125,-0.0625,-0.02294922,0.03076172,0.9750977,-0.1757813,-0.0546875,-0.3745117
181,-0.25,0,0,-0.03857422,0.01904297,0.9907227,-0.1757813,-0.0546875,-0.3745117
183,-0.25,0.125,-0.1875,-0.007324219,0,0.9633789,-0.1757813,-0.0546875,-0.3745117
185,-0.0625,0,-0.0625,-0.02294922,0,0.9594727,-0.1782227,-0.04248047,-0.3774414
187,-0.4375,-0.125,-0.0625,-0.01513672,0,0.9321289,-0.1782227,-0.04248047,-0.3774414
189,-0.4375,-0.1875,0.0625,-0.01513672,-0.003417969,0.9829102,-0.1782227,-0.04248047,-0.3774414
191,-0.1875,-0.1875,0.0625,-0.03466797,0.007324219,0.9438477,-0.1782227,-0.04248047,-0.3774414
193,-0.1875,0.125,-0.0625,-0.03076172,0,0.9711914,-0.1782227,-0.04248047,-0.3774414
195,-0.125,0,-0.0625,-0.02685547,0.01123047,0.9594727,-0.1782227,-0.04248047,-0.3774414
198,-0.0625,0,0,-0.01904297,0.02294922,0.9672852,-0.1782227,-0.04248047,-0.3774414
200,-0.1875,0,0.0625,-0.02685547,0.01123047,0.9672852,-0.1757813,-0.03271484,-0.3774414
202,-0.0625,-0.0625,-0.125,-0.03466797,0,0.9672852,-0.1757813,-0.03271484,-0.3774414
204,-0.1875,0.125,-0.125,-0.03857422,0.02294922,0.9477539,-0.1757813,-0.03271484,-0.3774414
206,-0.125,0,0.1875,-0.02685547,-0.01123047,0.9516602,-0.168457,-0.05224609,-0.3720703
208,-0.4375,-0.0625,0,-0.03857422,0.007324219,0.9477539,-0.168457,-0.05224609,-0.3720703
210,-0.4375,0.0625,-0.0625,-0.02685547,0.01513672,0.9594727,-0.168457,-0.05224609,-0.3720703
212,-0.0625,0.125,-0.25,-0.01123047,0.01513672,0.9907227,-0.168457,-0.05224609,-0.3720703
214,-0.25,-0.125,0.25,-0.02685547,-0.003417969,0.9672852,-0.168457,-0.05224609,-0.3720703
216,-0.0625,0,0,-0.01513672,-0.003417969,0.9711914,-0.168457,-0.05224609,-0.3720703
218,-0.0625,0,-0.0625,-0.02294922,0,0.9555664,-0.168457,-0.05224609,-0.3720703
220,-0.4375,0.125,0.125,-0.03076172,0.01904297,0.9516602,-0.1733398,-0.04492188,-0.3696289
222,-0.1875,0.0625,0,-0.02685547,0.01123047,0.9672852,-0.1733398,-0.04492188,-0.3696289
224,-0.1875,0,0.125,-0.02685547,-0.01904297,0.9711914,-0.1733398,-0.04492188,-0.3696289
226,-0.125,-0.125,-0.125,-0.01513672,0.003417969,0.9555664,-0.1806641,-0.03759766,-0.3745117
228,-0.25,0.125,-0.0625,-0.01904297,0.003417969,0.9594727,-0.1806641,-0.03759766,-0.3745117
230,-0.25,0.0625,0.0625,-0.03076172,0.007324219,0.9829102,-0.1806641,-0.03759766,-0.3745117
232,-0.0625,0,0,-0.03076172,0.02294922,0.9555664,-0.1806641,-0.03759766,-0.3745117
234,-0.1875,0.125,0.125,-0.02685547,0.007324219,0.9750977,-0.168457,-0.04980469,-0.3745117
236,-0.0625,-0.25,-0.0625,-0.04248047,0.007324219,0.9594727,-0.168457,-0.04980469,-0.3745117
238,-0.1875,0,0.125,-0.02294922,0.003417969,0.9633789,-0.168457,-0.04980469,-0.3745117
240,-0.25,0,0.125,-0.05029297,0.01123047,0.9360352,-0.1806641,-0.04492188,-0.3642578
242,-0.25,-0.0625,0.1875,-0.03076172,0.01123047,0.9633789,-0.1806641,-0.04492188,-0.3642578
244,-0.0625,-0.1875,0.3125,-0.01123047,0.02294922,0.9633789,-0.1806641,-0.04492188,-0.3642578
246,-0.125,0,-0.125,-0.03466797,-0.01513672,0.9711914,-0.1708984,-0.04980469,-0.3774414
248,-0.4375,0,0.0625,-0.01904297,0.01123047,0.9672852,-0.1708984,-0.04980469,-0.3774414
250,-0.125,-0.125,0,-0.02685547,0.003417969,0.9672852,-0.1708984,-0.04980469,-0.3774414
252,-0.375,0,0.0625,-0.02685547,-0.01513672,0.9516602,-0.1708984,-0.04980469,-0.3774414
254,-0.1875,-0.0625,0.1875,-0.01513672,-0.01123047,0.9516602,-0.1708984,-0.04980469,-0.3745117
256,-0.1875,0,0,-0.03076172,0.01123047,0.9399414,-0.1708984,-0.04980469,-0.3745117
258,-0.25,-0.125,0.0625,-0.007324219,0,0.9711914,-0.1708984,-0.04980469,-0.3745117
260,-0.25,0.3125,0,-0.03857422,0.007324219,0.9477539,-0.1782227,-0.0546875,-0.3569336
262,0,0,0.125,-0.01513672,0,0.9711914,-0.1782227,-0.0546875,-0.3569336
264,-0.1875,-0.125,0.25,-0.03076172,-0.01513672,0.9633789,-0.1782227,-0.0546875,-0.3569336
266,-0.1875,0.125,0,-0.03857422,0.01904297,0.9672852,-0.1757813,-0.04736328,-0.3696289
268,-0.375,-0.0625,0.125,-0.02294922,0,0.9711914,-0.1757813,-0.04736328,-0.3696289
270,-0.25,0.125,-0.125,-0.05810547,0.03076172,0.9399414,-0.1757813,-0.04736328,-0.3696289
272,-0.25,0.0625,0,-0.01513672,-0.003417969,0.9555664,-0.1757813,-0.04736328,-0.3696289
274,-0.25,-0.1875,0.0625,-0.01513672,0.003417969,0.9672852,-0.1782227,-0.04003906,-0.3642578
276,-0.1875,-0.125,-0.125,-0.007324219,0.01513672,0.9672852,-0.1782227,-0.04003906,-0.3642578
278,-0.0625,0,0.125,-0.03076172,0,0.9594727,-0.1782227,-0.04003906,-0.3642578
280,-0.125,-0.25,0.0625,-0.03466797,0.007324219,0.9555664,-0.1831055,-0.04980469,-0.3720703
282,-0.125,0.0625,0.0625,-0.01123047,0.01904297,0.9750977,-0.1831055,-0.04980469,-0.3720703
284,-0.125,-0.1875,0,-0.01123047,0.01513672,0.9633789,-0.1831055,-0.04980469,-0.3720703
286,-0.1875,0.125,0,-0.02294922,0.01513672,0.9594727,-0.1831055,-0.04980469,-0.3720703
288,-0.25,0.0625,-0.0625,-0.02685547,0.007324219,0.9360352,-0.1831055,-0.04980469,-0.3720703
290,-0.1875,0.125,-0.0625,-0.02685547,0.02294922,0.9672852,-0.1831055,-0.04980469,-0.3720703
292,-0.25,0,-0.0625,0,0,0.9555664,-0.1831055,-0.04980469,-0.3720703
294,-0.25,0,0,-0.02294922,0.01513672,0.9555664,-0.1635742,-0.04980469,-0.3720703
296,-0.125,0.0625,0.0625,-0.03076172,0.01513672,0.9399414,-0.1635742,-0.04980469,-0.3720703
298,-0.0625,-0.125,0.0625,-0.01123047,0,0.9399414,-0.1635742,-0.04980469,-0.3720703
300,-0.375,-0.125,-0.0625,-0.03466797,0.007324219,0.9477539,-0.1782227,-0.0546875,-0.3720703
302,-0.125,0,-0.1875,-0.01904297,0.003417969,0.9750977,-0.1782227,-0.0546875,-0.3720703
304,-0.3125,-0.125,-0.0625,-0.03076172,0,0.9555664,-0.1782227,-0.0546875,-0.3720703
306,-0.125,0,-0.1875,-0.04248047,0.003417969,0.9672852,-0.1782227,-0.0546875,-0.3720703
309,-0.25,0,-0.125,-0.01513672,0.003417969,0.9829102,-0.1782227,-0.0546875,-0.3720703
311,-0.375,0.0625,0.0625,-0.01513672,0.003417969,0.9516602,-0.1782227,-0.0546875,-0.3720703
313,-0.25,-0.3125,0.0625,0,0.01123047,0.9516602,-0.168457,-0.04492188,-0.3618164
315,0,0,0.1875,-0.01904297,0.01123047,0.9672852,-0.168457,-0.04492188,-0.3618164
317,-0.375,-0.1875,0.1875,-0.02294922,0.02294922,0.9594727,-0.1806641,-0.04736328,-0.3696289
319,-0.1875,0,-0.0625,-0.02294922,0.007324219,0.9594727,-0.1806641,-0.04736328,-0.3696289
321,-0.25,0,0.125,-0.02685547,0.01513672,0.9555664,-0.1806641,-0.04736328,-0.3696289
323,-0.1875,0.0625,0,0,0.01123047,0.9711914,-0.1806641,-0.04736328,-0.3696289
325,-0.375,0,0,-0.02294922,0,0.9672852,-0.1708984,-0.04980469,-0.3745117
328,-0.3125,0,0,-0.01123047,0.02294922,0.9750977,-0.1708984,-0.04980469,-0.3745117
330,-0.4375,0.125,-0.0625,-0.03076172,0.01123047,0.9555664,-0.1708984,-0.04980469,-0.3745117
332,-0.0625,-0.25,0,-0.03076172,0.01123047,0.9672852,-0.1733398,-0.04492188,-0.3720703
334,-0.125,0,0,-0.03076172,0.007324219,0.9711914,-0.1733398,-0.04492188,-0.3720703
336,-0.125,0.125,-0.0625,-0.03076172,0.01123047,0.9672852,-0.1733398,-0.04492188,-0.3720703
338,-0.1875,0,-0.125,-0.03076172,0.01513672,0.9672852,-0.1855469,-0.04248047,-0.3696289
340,-0.375,-0.1875,0.125,-0.003417969,0.01904297,0.9790039,-0.1855469,-0.04248047,-0.3696289
342,-0.0625,-0.125,0.0625,-0.01904297,0.007324219,0.9750977,-0.1855469,-0.04248047,-0.3696289
344,-0.0625,0,0,-0.03076172,0,0.9477539,-0.1855469,-0.04248047,-0.3696289
346,-0.25,-0.125,-0.125,-0.01513672,-0.003417969,0.9829102,-0.1782227,-0.04248047,-0.3671875
348,-0.1875,0.0625,-0.0625,-0.01513672,0,0.9672852,-0.1782227,-0.04248047,-0.3671875
350,-0.1875,-0.125,0.125,-0.01904297,0.007324219,0.9790039,-0.1782227,-0.04248047,-0.3671875
352,-0.25,-0.25,0,-0.01904297,0.01513672,0.9672852,-0.1806641,-0.04248047,-0.3671875
354,-0.3125,-0.125,0.125,-0.01904297,-0.003417969,0.9594727,-0.1806641,-0.04248047,-0.3671875
356,-0.1875,0,0,-0.02294922,-0.003417969,0.9868164,-0.1806641,-0.04248047,-0.3671875
358,-0.375,0.1875,0.0625,-0.01513672,0.01513672,0.9477539,-0.1806641,-0.04248047,-0.3671875
360,-0.125,0,0.125,-0.02685547,0,0.9672852,-0.1806641,-0.04248047,-0.3671875
362,-0.125,0,-0.0625,-0.02685547,0.01513672,0.9672852,-0.1806641,-0.04248047,-0.3671875
364,-0.125,-0.125,0,-0.01513672,0.007324219,0.9711914,-0.1806641,-0.04248047,-0.3671875
366,-0.375,-0.0625,0.1875,-0.02685547,0.02685547,0.9868164,-0.1757813,-0.04248047,-0.3798828
368,-0.1875,0.0625,-0.0625,-0.01904297,0.01123047,0.9829102,-0.1757813,-0.04248047,-0.3798828
370,-0.0625,0,-0.0625,-0.02294922,0.01513672,0.9555664,-0.1757813,-0.04248047,-0.3798828
372,-0.1875,0,0,-0.02685547,0.01123047,0.9790039,-0.1660156,-0.04736328,-0.3642578
374,-0.3125,-0.0625,0.0625,-0.03076172,0.01904297,0.9672852,-0.1660156,-0.04736328,-0.3642578
376,-0.25,0.125,0,-0.02294922,-0.01513672,0.9750977,-0.1660156,-0.04736328,-0.3642578
378,-0.4375,0.1875,0,-0.01904297,0.007324219,0.9672852,-0.1660156,-0.04736328,-0.3642578
380,-0.1875,0,-0.125,-0.01123047,0.01123047,0.9790039,-0.1660156,-0.04736328,-0.3642578
382,-0.25,0,0.0625,-0.02685547,0.007324219,0.9750977,-0.1660156,-0.04736328,-0.3642578
384,-0.3125,0,0.1875,-0.03076172,0.02294922,0.9633789,-0.1660156,-0.04736328,-0.3642578
386,-0.1875,0,0.125,-0.03466797,0.003417969,0.9711914,-0.1831055,-0.05224609,-0.3696289
388,-0.3125,-0.1875,0.0625,-0.02685547,0,0.9711914,-0.1831055,-0.05224609,-0.3696289
390,-0.125,0,-0.125,-0.01904297,-0.003417969,0.9633789,-0.1831055,-0.05224609,-0.3696289
392,-0.125,-0.0625,0,-0.02685547,0.007324219,0.9594727,-0.1806641,-0.04736328,-0.3696289
394,-0.125,-0.125,0.0625,-0.04248047,0,0.9672852,-0.1806641,-0.04736328,-0.3696289
396,-0.3125,0,0.0625,-0.04248047,0.01904297,0.9750977,-0.1806641,-0.04736328,-0.3696289
398,-0.25,0.0625,0,-0.01123047,-0.003417969,0.9321289,-0.1806641,-0.04736328,-0.3696289
400,-0.1875,0,-0.0625,-0.02685547,0.01904297,0.9711914,-0.1806641,-0.04492188,-0.3745117
402,-0.125,0,0,-0.01904297,0.003417969,0.9555664,-0.1806641,-0.04492188,-0.3745117
404,-0.1875,0.0625,0.0625,-0.02685547,-0.01123047,0.9829102,-0.1806641,-0.04492188,-0.3745117
406,-0.25,0,0.0625,-0.01904297,0.01513672,0.9711914,-0.1708984,-0.04492188,-0.3720703
408,-0.375,0,0,-0.01123047,0.01123047,0.9711914,-0.1708984,-0.04492188,-0.3720703
410,0,0.125,-0.0625,-0.05029297,0.007324219,0.9555664,-0.1708984,-0.04492188,-0.3720703
412,-0.4375,0,-0.125,-0.007324219,0.02685547,0.9750977,-0.1782227,-0.04736328,-0.3798828
414,-0.1875,-0.125,-0.0625,-0.01513672,-0.007324219,0.9711914,-0.1782227,-0.04736328,-0.3798828
416,-0.1875,0,0,-0.01904297,0.01123047,0.9711914,-0.1782227,-0.04736328,-0.3798828
418,-0.0625,0.25,0,-0.03076172,0.003417969,0.9633789,-0.1782227,-0.04736328,-0.3798828
420,-0.1875,0.125,0.125,-0.01513672,0.003417969,0.9868164,-0.1831055,-0.04980469,-0.3745117
422,-0.125,0.125,0,-0.01513672,0.01513672,0.9672852,-0.1831055,-0.04980469,-0.3745117
424,-0.375,0.0625,0.0625,-0.01904297,0.01904297,0.9672852,-0.1831055,-0.04980469,-0.3745117
426,-0.3125,-0.125,-0.0625,-0.03857422,0.01123047,0.9594727,-0.1806641,-0.04736328,-0.3696289
428,-0.125,0.125,0.0625,-0.01123047,0.01513672,0.9516602,-0.1806641,-0.04736328,-0.3696289
430,-0.4375,0.1875,0,-0.02294922,0.007324219,0.9477539,-0.1806641,-0.04736328,-0.3696289
432,-0.4375,0,0.125,-0.03466797,0.01123047,0.9750977,-0.1879883,-0.04492188,-0.3745117
434,-0.125,0.25,0.125,-0.04248047,0.003417969,0.9438477,-0.1879883,-0.04492188,-0.3745117
436,-0.3125,0,-0.0625,-0.03076172,-0.003417969,0.9672852,-0.1879883,-0.04492188,-0.3745117
438,-0.1875,0,0.0625,-0.03076172,-0.003417969,0.9868164,-0.1879883,-0.04492188,-0.3745117
440,-0.1875,0,-0.0625,-0.02294922,0.01123047,0.9555664,-0.1757813,-0.05224609,-0.3642578
442,-0.1875,-0.0625,-0.0625,-0.03076172,0.02294922,0.9672852,-0.1757813,-0.05224609,-0.3642578
444,-0.4375,0,0.125,-0.04638672,0.01123047,0.9594727,-0.1757813,-0.05224609,-0.3642578
446,-0.1875,-0.125,0.125,-0.01513672,0,0.9790039,-0.1855469,-0.04492188,-0.3774414
448,-0.25,0.0625,-0.0625,-0.02685547,0.007324219,0.9672852,-0.1855469,-0.04492188,-0.3774414
450,-0.125,0,0.125,-0.01904297,0.007324219,0.9907227,-0.1855469,-0.04492188,-0.3774414
452,-0.0625,0,-0.0625,-0.03466797,0.007324219,0.9594727,-0.1855469,-0.04492188,-0.3774414
454,-0.25,0,-0.0625,-0.03076172,0.003417969,0.9750977,-0.1855469,-0.04492188,-0.3774414
457,-0.3125,0.125,0,-0.01904297,0.01904297,0.9672852,-0.1855469,-0.04492188,-0.3774414
459,-0.1875,0,0.0625,-0.01513672,0.007324219,0.9790039,-0.1855469,-0.04492188,-0.3774414
461,-0.1875,-0.125,0,-0.01513672,0.007324219,0.9555664,-0.1855469,-0.04736328,-0.3798828
463,-0.1875,0.25,0.0625,-0.003417969,0.01123047,0.9594727,-0.1855469,-0.04736328,-0.3798828
465,-0.1875,0,0.0625,-0.05029297,0.01513672,0.9594727,-0.1855469,-0.04736328,-0.3798828
467,0,0.1875,0.0625,-0.01904297,0.01513672,0.9555664,-0.1757813,-0.04248047,-0.3774414
469,-0.5,0.0625,0,-0.01513672,0.007324219,0.9790039,-0.1757813,-0.04248047,-0.3774414
471,-0.1875,0.25,0.1875,-0.02294922,0.02685547,0.9594727,-0.1757813,-0.04248047,-0.3774414
473,-0.125,-0.0625,0.0625,-0.03076172,0.003417969,0.9829102,-0.1757813,-0.04248047,-0.3774414
475,-0.3125,0.25,0.0625,-0.01513672,0,0.9790039,-0.1757813,-0.04248047,-0.3774414
477,-0.125,-0.125,0,-0.02685547,0.007324219,0.9672852,-0.1757813,-0.04248047,-0.3774414
479,-0.0625,0,-0.0625,-0.007324219,-0.007324219,0.9711914,-0.1757813,-0.04248047,-0.3774414
481,-0.3125,0.125,0,-0.02685547,-0.007324219,0.9672852,-0.1806641,-0.04492188,-0.3774414
483,-0.25,-0.125,0,-0.03076172,0.01904297,0.9790039,-0.1806641,-0.04492188,-0.3774414
485,-0.125,0,-0.0625,-0.01904297,-0.003417969,0.9516602,-0.1806641,-0.04492188,-0.3774414
487,-0.1875,0,0.1875,-0.02685547,0.01904297,0.9672852,-0.1708984,-0.04980469,-0.3642578
489,-0.4375,0.0625,0.0625,-0.02294922,0.01904297,0.9750977,-0.1708984,-0.04980469,-0.3642578
491,-0.1875,0,0,-0.007324219,0.003417969,0.9672852,-0.1708984,-0.04980469,-0.3642578
493,-0.25,0.0625,0.25,-0.01904297,-0.003417969,0.9672852,-0.1708984,-0.04980469,-0.3642578
495,-0.4375,0.1875,0,-0.03076172,0.003417969,1.001953,-0.1635742,-0.04736328,-0.3720703
497,-0.125,0.0625,0.1875,-0.02685547,0.01123047,0.9829102,-0.1635742,-0.04736328,-0.3720703
499,-0.125,0,0.1875,-0.02685547,0.007324219,0.9790039,-0.1635742,-0.04736328,-0.3720703
501,-0.25,0,0.125,-0.01513672,0,0.9868164,-0.1782227,-0.04736328,-0.3745117
503,-0.375,-0.125,-0.0625,-0.02685547,0,0.9672852,-0.1782227,-0.04736328,-0.3745117
505,-0.375,0,0.0625,-0.03076172,0.01123047,0.9516602,-0.1782227,-0.04736328,-0.3745117
507,-0.125,-0.0625,0,-0.01904297,0,0.9594727,-0.1782227,-0.04492188,-0.3720703
509,-0.25,0,0.0625,-0.03076172,0.01904297,0.9750977,-0.1782227,-0.04492188,-0.3720703
511,-0.1875,0,0.0625,-0.01904297,0.007324219,0.9790039,-0.1782227,-0.04492188,-0.3720703
513,-0.125,-0.125,-0.0625,-0.01904297,0.01904297,0.9711914,-0.1782227,-0.04492188,-0.3720703
515,-0.0625,-0.125,0,-0.02685547,0.01513672,0.9829102,-0.1757813,-0.04003906,-0.3774414
517,-0.3125,0,0.0625,-0.02685547,0.007324219,0.9516602,-0.1757813,-0.04003906,-0.3774414
519,-0.125,0,0,-0.01904297,0.007324219,0.9711914,-0.1757813,-0.04003906,-0.3774414
521,-0.1875,-0.1875,0,-0.01904297,0.03076172,0.9750977,-0.1708984,-0.04736328,-0.3671875
523,-0.0625,-0.1875,0.1875,-0.03076172,-0.007324219,0.9438477,-0.1708984,-0.04736328,-0.3671875
525,-0.25,0.1875,-0.125,-0.02685547,0.02294922,0.9594727,-0.1708984,-0.04736328,-0.3671875
527,-0.25,0,0.0625,-0.03076172,0.007324219,0.9711914,-0.1708984,-0.04980469,-0.3745117
529,-0.375,0,0,-0.02294922,0.003417969,0.9555664,-0.1708984,-0.04980469,-0.3745117
531,-0.4375,0,0,-0.02294922,0,0.9672852,-0.1708984,-0.04980469,-0.3745117
533,-0.25,-0.0625,-0.125,-0.02294922,0.007324219,0.9750977,-0.1708984,-0.04980469,-0.3745117
535,-0.1875,0,0.0625,-0.03076172,0.01904297,0.9711914,-0.1782227,-0.04492188,-0.3671875
537,-0.3125,0,0.1875,-0.01123047,0.003417969,0.9477539,-0.1782227,-0.04492188,-0.3671875
539,-0.25,0,0,-0.01513672,0,0.9594727,-0.1782227,-0.04492188,-0.3671875
541,-0.4375,0,0.1875,-0.01513672,0.003417969,0.9555664,-0.1757813,-0.04492188,-0.3671875
543,-0.25,0,0,-0.03466797,0.007324219,0.9516602,-0.1757813,-0.04492188,-0.3671875
545,-0.125,0,0,-0.03466797,0.01513672,0.9594727,-0.1757813,-0.04492188,-0.3671875
547,0,0.125,0.0625,-0.02294922,0.01123047,0.9750977,-0.1757813,-0.04492188,-0.3671875
549,-0.125,0.125,-0.0625,-0.03076172,0.01513672,0.9711914,-0.1757813,-0.04492188,-0.3671875
551,-0.125,0,0,-0.01513672,0.01513672,0.9438477,-0.1757813,-0.04492188,-0.3671875
553,-0.125,0.0625,-0.25,-0.02685547,-0.007324219,0.9750977,-0.1757813,-0.04492188,-0.3671875
555,-0.4375,0,0.125,-0.02685547,0.01513672,0.9594727,-0.1733398,-0.04248047,-0.3642578
557,0,0,0,-0.02294922,0.003417969,0.9829102,-0.1733398,-0.04248047,-0.3642578
559,-0.3125,0,0,-0.02685547,0,0.9711914,-0.1733398,-0.04248047,-0.3642578
561,-0.3125,-0.0625,-0.125,-0.03466797,0.01123047,0.9711914,-0.1855469,-0.04736328,-0.3745117
563,-0.1875,-0.125,0,-0.01513672,0.02294922,0.9477539,-0.1855469,-0.04736328,-0.3745117
565,-0.1875,0,0,-0.01513672,0.003417969,0.9321289,-0.1855469,-0.04736328,-0.3745117
567,-0.125,0,0,-0.02685547,-0.01513672,0.9750977,-0.1855469,-0.04736328,-0.3745117
569,-0.5,0,-0.0625,-0.01513672,0,0.9750977,-0.1782227,-0.04248047,-0.3774414
571,-0.25,-0.125,0,-0.02685547,0.01904297,0.9477539,-0.1782227,-0.04248047,-0.3774414
573,-0.125,0,0,-0.03076172,0.003417969,0.9594727,-0.1782227,-0.04248047,-0.3774414
575,-0.375,-0.125,-0.0625,-0.02685547,0.01123047,0.9672852,-0.1831055,-0.04980469,-0.3720703
577,-0.125,0,0.0625,-0.03076172,0.01513672,0.9672852,-0.1831055,-0.04980469,-0.3720703
579,-0.125,-0.125,-0.0625,-0.01513672,0.007324219,0.9829102,-0.1831055,-0.04980469,-0.3720703
581,-0.3125,-0.1875,-0.0625,-0.02685547,0.01123047,0.9750977,-0.1708984,-0.04492188,-0.3642578
583,-0.25,-0.0625,-0.125,-0.02685547,0.007324219,0.9672852,-0.1708984,-0.04492188,-0.3642578
587,-0.125,0.0625,0.0625,-0.03076172,0.003417969,0.9399414,-0.1708984,-0.04492188,-0.3642578
589,-0.0625,0.0625,0.0625,-0.01513672,-0.007324219,0.9594727,-0.1708984,-0.04492188,-0.3642578
591,-0.125,-0.25,0.0625,-0.03076172,0.01513672,0.9790039,-0.1708984,-0.04248047,-0.3569336
593,-0.1875,0,-0.1875,-0.01904297,0,0.9555664,-0.1708984,-0.04248047,-0.3569336
595,-0.1875,-0.0625,-0.125,-0.03076172,0.01513672,0.9516602,-0.1708984,-0.04248047,-0.3569336
597,-0.1875,-0.125,0.1875,-0.03076172,-0.003417969,0.9672852,-0.1757813,-0.04492188,-0.3671875
599,-0.125,-0.125,0.125,-0.02294922,0.01123047,0.9516602,-0.1757813,-0.04492188,-0.3671875
601,-0.1875,0.125,0.125,-0.02294922,0,0.9750977,-0.1757813,-0.04492188,-0.3671875
603,-0.1875,0,-0.0625,-0.03076172,-0.007324219,0.9672852,-0.1635742,-0.03271484,-0.3642578
605,-0.4375,-0.1875,-0.0625,-0.01513672,0.01123047,0.9477539,-0.1635742,-0.03271484,-0.3642578
607,-0.375,-0.125,0.125,-0.03076172,0.003417969,0.9633789,-0.1635742,-0.03271484,-0.3642578
609,-0.25,-0.1875,-0.125,-0.007324219,0.01123047,0.9672852,-0.1635742,-0.03271484,-0.3642578
611,-0.3125,-0.125,0.0625,-0.03076172,0.007324219,0.9672852,-0.1806641,-0.04003906,-0.3774414
613,-0.125,0.1875,-0.0625,-0.01904297,0.01904297,0.9594727,-0.1806641,-0.04003906,-0.3774414
615,-0.1875,0.0625,-0.125,-0.02294922,0.003417969,0.9555664,-0.1806641,-0.04003906,-0.3774414
617,-0.1875,-0.125,0,-0.05029297,-0.003417969,0.9555664,-0.168457,-0.04980469,-0.3671875
619,-0.4375,0,-0.0625,-0.02294922,0.01513672,0.9555664,-0.168457,-0.04980469,-0.3671875
621,-0.375,-0.125,0.1875,-0.03076172,0.007324219,0.9711914,-0.168457,-0.04980469,-0.3671875
623,0,0,0,-0.04638672,0.003417969,0.9750977,-0.168457,-0.04980469,-0.3671875
625,-0.0625,0,0.0625,-0.01904297,0.003417969,0.9750977,-0.168457,-0.04980469,-0.3671875
627,-0.375,0,0.125,-0.04248047,0,0.9594727,-0.168457,-0.04980469,-0.3671875
629,-0.125,0.0625,0.0625,-0.02685547,0.01513672,0.9672852,-0.168457,-0.04980469,-0.3671875
631,-0.1875,0,0.0625,-0.03076172,0.02294922,0.9555664,-0.1733398,-0.04980469,-0.3642578
633,-0.375,-0.0625,-0.0625,-0.01904297,-0.007324219,0.9555664,-0.1733398,-0.04980469,-0.3642578
635,-0.125,0,0,-0.02685547,0.02294922,0.9672852,-0.1733398,-0.04980469,-0.3642578
637,-0.25,-0.1875,0.0625,-0.03076172,0.007324219,0.9438477,-0.1806641,-0.04980469,-0.359375
639,-0.125,0.0625,-0.125,-0.02685547,0.01904297,0.9750977,-0.1806641,-0.04980469,-0.359375
641,-0.1875,0,-0.125,-0.02294922,0.02294922,0.9477539,-0.1806641,-0.04980469,-0.359375
643,-0.25,-0.125,0,-0.03076172,0.01123047,0.9438477,-0.1806641,-0.04980469,-0.359375
645,-0.25,0,-0.0625,-0.02294922,0,0.9829102,-0.1806641,-0.04980469,-0.359375
647,-0.4375,0,0,-0.04248047,0.01123047,0.9711914,-0.1806641,-0.04980469,-0.359375
649,-0.25,0,-0.125,-0.03857422,0.01513672,0.9672852,-0.1806641,-0.04980469,-0.359375
651,-0.25,0,0.125,-0.02685547,0.01123047,0.9672852,-0.1733398,-0.05224609,-0.3745117
653,-0.0625,-0.0625,-0.0625,-0.03076172,-0.003417969,0.9633789,-0.1733398,-0.05224609,-0.3745117
655,-0.0625,-0.125,0.125,-0.01513672,0.01513672,0.9555664,-0.1733398,-0.05224609,-0.3745117
657,0,0,-0.125,-0.01904297,-0.003417969,0.9672852,-0.1708984,-0.04492188,-0.3774414
659,-0.25,-0.1875,-0.0625,-0.04248047,0.01123047,0.9672852,-0.1708984,-0.04492188,-0.3774414
661,-0.125,-0.1875,0.0625,-0.03076172,0.01513672,0.9790039,-0.1708984,-0.04492188,-0.3774414
663,-0.4375,0.0625,-0.0625,-0.04638672,0.003417969,0.9750977,-0.1708984,-0.04492188,-0.3774414
665,-0.375,0,0,-0.03076172,0.02294922,0.9750977,-0.1831055,-0.04736328,-0.3798828
667,-0.25,-0.1875,0.3125,-0.01513672,0.01513672,0.9672852,-0.1831055,-0.04736328,-0.3798828
669,-0.125,0,-0.125,-0.02685547,0,0.9790039,-0.1831055,-0.04736328,-0.3798828
671,-0.25,-0.25,0,-0.01513672,0.007324219,0.9750977,-0.1757813,-0.04736328,-0.3696289
673,-0.125,0.125,0.0625,-0.02294922,0.01513672,0.9399414,-0.1757813,-0.04736328,-0.3696289
675,-0.25,0.125,0.0625,-0.02685547,-0.003417969,0.9321289,-0.1757813,-0.04736328,-0.3696289
677,-0.25,0.0625,0.0625,-0.02685547,-0.003417969,0.9399414,-0.1782227,-0.04736328,-0.3696289
679,-0.3125,0,0.125,-0.02294922,0,0.9399414,-0.1782227,-0.04736328,-0.3696289
681,-0.1875,0,0,-0.02294922,0.02294922,0.9672852,-0.1782227,-0.04736328,-0.3696289
683,-0.1875,0.0625,0.125,-0.03076172,0.01904297,0.9711914,-0.1782227,-0.04736328,-0.3696289
685,-0.125,0.0625,0,-0.02294922,-0.007324219,0.9594727,-0.1879883,-0.04003906,-0.3642578
687,-0.125,0,0.125,-0.02294922,0.01513672,0.9477539,-0.1879883,-0.04003906,-0.3642578
689,-0.125,0,0.25,-0.01513672,0,0.9672852,-0.1879883,-0.04003906,-0.3642578
691,-0.1875,0,0,-0.04638672,0.003417969,0.9438477,-0.1806641,-0.04248047,-0.3671875
693,-0.125,0,-0.1875,-0.03076172,0.003417969,0.9516602,-0.1806641,-0.04248047,-0.3671875
695,-0.3125,-0.125,-0.125,-0.03076172,-0.003417969,0.9555664,-0.1806641,-0.04248047,-0.3671875
697,-0.25,0.0625,-0.25,-0.03857422,0,0.9711914,-0.1733398,-0.04980469,-0.3671875
699,-0.25,0,-0.0625,-0.01904297,0,0.9594727,-0.1733398,-0.04980469,-0.3671875
701,-0.25,0,-0.125,-0.01513672,0.01123047,0.9829102,-0.1733398,-0.04980469,-0.3671875
703,-0.125,0,0,-0.02294922,0.003417969,0.9711914,-0.1733398,-0.04980469,-0.3671875
705,-0.1875,0,0.25,-0.03466797,0.01904297,0.9711914,-0.1757813,-0.04736328,-0.3696289
707,-0.125,0,0.0625,-0.03076172,0.007324219,0.9672852,-0.1757813,-0.04736328,-0.3696289
709,-0.1875,-0.1875,0,-0.02294922,0,0.9672852,-0.1757813,-0.04736328,-0.3696289
711,-0.25,0,0.125,-0.02294922,0.007324219,0.9672852,-0.1733398,-0.04980469,-0.3720703
713,-0.1875,0,-0.125,-0.04638672,0,0.9672852,-0.1733398,-0.04980469,-0.3720703
716,-0.1875,-0.3125,-0.125,-0.02685547,-0.003417969,0.9907227,-0.1733398,-0.04980469,-0.3720703
718,-0.125,0,0,0,-0.01123047,0.9360352,-0.1733398,-0.04980469,-0.3720703
720,-0.4375,-0.125,0,-0.02294922,0.007324219,0.9750977,-0.1733398,-0.04980469,-0.3720703
722,-0.1875,-0.1875,-0.0625,-0.01123047,0.007324219,0.9750977,-0.1733398,-0.04980469,-0.3720703
724,-0.25,0.1875,0.125,-0.02685547,0.003417969,0.9711914,-0.1733398,-0.04980469,-0.3720703
726,-0.125,-0.1875,-0.125,-0.03076172,0.003417969,0.9438477,-0.1708984,-0.04736328,-0.3671875
728,-0.3125,-0.125,0.125,-0.01513672,0.01123047,0.9790039,-0.1708984,-0.04736328,-0.3671875
730,-0.1875,-0.1875,0.0625,-0.01513672,-0.01123047,0.9594727,-0.1708984,-0.04736328,-0.3671875
732,-0.125,0.0625,0.125,-0.03076172,0.003417969,0.9672852,-0.1733398,-0.04248047,-0.3618164
734,-0.1875,-0.25,0.0625,-0.02685547,0.007324219,0.9672852,-0.1733398,-0.04248047,-0.3618164
736,-0.4375,0,-0.0625,-0.04248047,0.02294922,0.9790039,-0.1733398,-0.04248047,-0.3618164
738,-0.125,0,0.125,-0.03076172,0.003417969,0.9711914,-0.1733398,-0.04248047,-0.3618164
740,-0.125,0,0.0625,-0.01513672,0.01513672,0.9594727,-0.1733398,-0.04248047,-0.3618164
742,-0.25,0.125,0,-0.03466797,0.007324219,0.9633789,-0.1733398,-0.04248047,-0.3618164
744,-0.1875,0,0.0625,-0.03076172,-0.003417969,0.9360352,-0.1733398,-0.04248047,-0.3618164
746,-0.25,-0.125,-0.1875,-0.03076172,-0.007324219,0.9750977,-0.1782227,-0.04492188,-0.3618164
748,-0.3125,-0.125,0.1875,-0.03076172,0.007324219,0.9555664,-0.1782227,-0.04492188,-0.3618164
750,-0.125,0,-0.125,-0.03857422,0.003417969,0.9477539,-0.1782227,-0.04492188,-0.3618164
752,-0.1875,-0.125,0.1875,-0.03076172,-0.003417969,0.9672852,-0.1782227,-0.04003906,-0.3642578
754,-0.4375,0.125,0.1875,-0.02685547,-0.007324219,0.9594727,-0.1782227,-0.04003906,-0.3642578
756,-0.125,-0.0625,0.0625,-0.03076172,0.007324219,0.9711914,-0.1782227,-0.04003906,-0.3642578
758,-0.375,0,-0.125,-0.02685547,0.007324219,0.9555664,-0.1782227,-0.04003906,-0.3642578
760,-0.25,0.0625,0.0625,-0.03076172,0.01513672,0.9516602,-0.1928711,-0.05224609,-0.3671875
762,-0.25,0,0,-0.01904297,-0.003417969,0.9516602,-0.1928711,-0.05224609,-0.3671875
764,-0.3125,-0.125,-0.0625,-0.02294922,0.003417969,0.9555664,-0.1928711,-0.05224609,-0.3671875
766,-0.25,0.0625,0,-0.01513672,0.003417969,0.9790039,-0.1831055,-0.05224609,-0.3720703
768,-0.125,0,0.125,-0.03076172,0.003417969,0.9399414,-0.1831055,-0.05224609,-0.3720703
770,-0.125,0,0,-0.02685547,-0.007324219,0.9711914,-0.1831055,-0.05224609,-0.3720703
772,-0.125,-0.125,-0.0625,-0.003417969,0.007324219,0.9672852,-0.1806641,-0.04736328,-0.3696289
774,-0.0625,0.0625,0.1875,0,0.02294922,0.9594727,-0.1806641,-0.04736328,-0.3696289
776,-0.4375,-0.1875,0,-0.01513672,-0.007324219,0.9672852,-0.1806641,-0.04736328,-0.3696289
778,-0.0625,0,0.125,-0.02685547,0.007324219,0.9477539,-0.1806641,-0.04736328,-0.3696289
780,-0.1875,0,0.125,-0.02294922,-0.003417969,0.9633789,-0.1928711,-0.04736328,-0.3745117
782,-0.1875,-0.0625,0,-0.03076172,0.01513672,0.9750977,-0.1928711,-0.04736328,-0.3745117
784,-0.125,0.125,0,-0.03076172,0,0.9672852,-0.1928711,-0.04736328,-0.3745117
786,-0.0625,-0.125,0,-0.02294922,0.007324219,0.9711914,-0.1928711,-0.04003906,-0.3798828
788,-0.25,0,0.0625,-0.03076172,0.01123047,0.9790039,-0.1928711,-0.04003906,-0.3798828
790,-0.4375,0.0625,-0.0625,-0.02294922,-0.007324219,0.9946289,-0.1928711,-0.04003906,-0.3798828
792,-0.1875,-0.1875,-0.125,-0.01513672,0.01513672,0.9672852,-0.1904297,-0.05712891,-0.3798828
794,-0.0625,0,-0.0625,-0.02294922,0,0.9516602,-0.1904297,-0.05712891,-0.3798828
796,-0.1875,0,-0.0625,-0.007324219,0.007324219,0.9790039,-0.1904297,-0.05712891,-0.3798828
798,-0.1875,0.0625,0,-0.03466797,0.007324219,0.9672852,-0.1904297,-0.05712891,-0.3798828
800,-0.3125,0.0625,0.0625,-0.01513672,0.007324219,0.9477539,-0.1855469,-0.05224609,-0.3671875
802,-0.1875,-0.1875,-0.0625,-0.02294922,0.01123047,0.9672852,-0.1855469,-0.05224609,-0.3671875
804,-0.375,-0.1875,-0.0625,-0.02685547,0,0.9438477,-0.1855469,-0.05224609,-0.3671875
806,-0.125,0,0.125,-0.02685547,-0.003417969,0.9750977,-0.2026367,-0.04492188,-0.3798828
808,-0.4375,0.0625,-0.0625,-0.02685547,0.03076172,0.9750977,-0.2026367,-0.04492188,-0.3798828
810,-0.125,0,0.125,-0.03076172,-0.003417969,0.9790039,-0.2026367,-0.04492188,-0.3798828
812,-0.375,0.125,0.0625,-0.02685547,-0.007324219,0.9829102,-0.2026367,-0.04492188,-0.3798828
814,-0.25,0,0.125,-0.01513672,0.01123047,0.9672852,-0.2026367,-0.04492188,-0.3798828
816,-0.1875,0.0625,0,-0.03076172,0.01904297,0.9711914,-0.2026367,-0.04492188,-0.3798828
818,-0.25,0,0,-0.04248047,0.01123047,0.9750977,-0.2026367,-0.04492188,-0.3798828
820,-0.25,0,0.1875,-0.01513672,0,0.9829102,-0.1928711,-0.04736328,-0.3798828
822,0,-0.125,0.125,-0.02685547,-0.007324219,0.9477539,-0.1928711,-0.04736328,-0.3798828
824,-0.375,-0.0625,0.0625,-0.02685547,0.03466797,0.9750977,-0.1928711,-0.04736328,-0.3798828
826,-0.125,0,-0.0625,-0.03857422,-0.003417969,0.9790039,-0.2001953,-0.04248047,-0.3823242
828,-0.125,0,0,-0.04248047,-0.01513672,0.9555664,-0.2001953,-0.04248047,-0.3823242
830,-0.125,-0.125,-0.0625,-0.04248047,0.01513672,0.9829102,-0.2001953,-0.04248047,-0.3823242
832,-0.25,0,0.0625,-0.01123047,0.01123047,0.9477539,-0.2001953,-0.04248047,-0.3823242
834,-0.25,0.0625,0,-0.03466797,-0.003417969,0.9477539,-0.2001953,-0.04248047,-0.3823242
836,-0.1875,-0.125,0.125,-0.03076172,0.01904297,0.9555664,-0.2001953,-0.04248047,-0.3823242
838,-0.3125,-0.0625,0,-0.01904297,0,0.9594727,-0.2001953,-0.04248047,-0.3823242
840,-0.25,0,-0.0625,-0.02685547,0.003417969,0.9672852,-0.2026367,-0.04980469,-0.3798828
842,-0.125,0.125,0.125,-0.02294922,0,0.9907227,-0.2026367,-0.04980469,-0.3798828
845,-0.1875,0,-0.0625,-0.03076172,0.01904297,0.9555664,-0.2026367,-0.04980469,-0.3798828
847,-0.0625,0,-0.0625,-0.03076172,0.02294922,0.9672852,-0.2075195,-0.04980469,-0.3823242
849,-0.1875,0,0.0625,-0.01123047,0.007324219,0.9594727,-0.2075195,-0.04980469,-0.3823242
851,-0.1875,-0.1875,0,-0.01513672,0.003417969,0.9555664,-0.2075195,-0.04980469,-0.3823242
853,-0.25,0,0.0625,-0.02685547,0.01123047,0.9321289,-0.2075195,-0.04980469,-0.3823242
855,-0.0625,0,-0.0625,-0.02294922,-0.007324219,0.9790039,-0.2050781,-0.05224609,-0.3745117
857,-0.3125,-0.125,0,-0.02685547,0.007324219,0.9399414,-0.2050781,-0.05224609,-0.3745117
859,-0.3125,0,0.1875,-0.03076172,0.02294922,0.9399414,-0.2050781,-0.05224609,-0.3745117
861,-0.1875,-0.125,-0.125,-0.04248047,0.01904297,0.9594727,-0.2026367,-0.04248047,-0.3876953
863,-0.3125,0,-0.125,-0.03076172,0.02685547,0.9672852,-0.2026367,-0.04248047,-0.3876953
865,-0.25,0,-0.0625,-0.01513672,-0.003417969,0.9672852,-0.2026367,-0.04248047,-0.3876953
867,-0.25,0.1875,0.125,-0.04248047,0.007324219,0.9555664,-0.2001953,-0.04248047,-0.3823242
869,-0.125,0.125,0.0625,-0.03466797,0,0.9790039,-0.2001953,-0.04248047,-0.3823242
871,-0.25,-0.125,0.125,-0.01904297,0.01513672,0.9868164,-0.2001953,-0.04248047,-0.3823242
873,-0.3125,0,-0.0625,-0.01513672,0.007324219,0.9868164,-0.2001953,-0.04248047,-0.3823242
875,-0.125,-0.125,0.1875,-0.03076172,0.02294922,0.9594727,-0.2050781,-0.04003906,-0.3876953
877,-0.125,0.125,0.0625,-0.02685547,0.01513672,0.9672852,-0.2050781,-0.04003906,-0.3876953
879,-0.3125,0,0.0625,-0.007324219,0.007324219,0.9555664,-0.2050781,-0.04003906,-0.3876953
881,-0.0625,0,0.1875,-0.03076172,0,0.9790039,-0.2026367,-0.04736328,-0.3852539
883,-0.25,-0.0625,0.0625,-0.03076172,0,0.9555664,-0.2026367,-0.04736328,-0.3852539
885,-0.125,0.0625,0.0625,-0.01513672,0.01904297,0.9477539,-0.2026367,-0.04736328,-0.3852539
887,-0.1875,0,0.125,-0.02685547,0.007324219,0.9985352,-0.2026367,-0.04736328,-0.3852539
889,-0.25,0,0.125,-0.01904297,0.007324219,0.9946289,-0.2026367,-0.04736328,-0.3852539
891,-0.4375,0.0625,0,-0.02685547,0.007324219,0.9555664,-0.2026367,-0.04736328,-0.3852539
893,-0.1875,0,0.0625,-0.03076172,0.003417969,0.9555664,-0.2026367,-0.04736328,-0.3852539
895,-0.0625,0.0625,0.0625,-0.03076172,0.02294922,0.9633789,-0.2099609,-0.04248047,-0.3901367
897,-0.0625,0,0.0625,-0.02685547,0.003417969,0.9555664,-0.2099609,-0.04248047,-0.3901367
899,-0.3125,-0.1875,0.0625,-0.02294922,0.01513672,0.9790039,-0.2099609,-0.04248047,-0.3901367
901,-0.1875,0.0625,0,-0.03076172,0.01513672,0.9633789,-0.2197266,-0.04492188,-0.3823242
903,-0.25,0,0.0625,-0.01123047,-0.003417969,0.9711914,-0.2197266,-0.04492188,-0.3823242
905,-0.3125,-0.0625,-0.0625,-0.01513672,0.01513672,0.9555664,-0.2197266,-0.04492188,-0.3823242
907,-0.125,0,0.125,-0.03076172,0,0.9711914,-0.2197266,-0.04492188,-0.3823242
909,-0.125,-0.1875,-0.125,-0.03076172,0.02294922,0.9321289,-0.2197266,-0.04492188,-0.3823242
911,-0.1875,0.125,0,-0.03076172,0.03076172,0.9672852,-0.2197266,-0.04492188,-0.3823242
913,-0.0625,0.0625,0.0625,-0.01123047,0.01123047,0.9868164,-0.2197266,-0.04492188,-0.3823242
915,-0.1875,-0.125,0.0625,-0.02294922,0.01123047,0.9672852,-0.2246094,-0.04492188,-0.3901367
917,-0.4375,-0.125,0.0625,-0.02294922,0.007324219,0.9516602,-0.2246094,-0.04492188,-0.3901367
919,-0.125,0,-0.0625,-0.02294922,0.01123047,0.9672852,-0.2246094,-0.04492188,-0.3901367
921,-0.1875,0.0625,0,-0.05029297,0.007324219,0.9555664,-0.2246094,-0.04003906,-0.3955078
923,-0.25,0,-0.0625,-0.03076172,0.01513672,0.9711914,-0.2246094,-0.04003906,-0.3955078
925,-0.25,-0.125,0.1875,-0.02685547,0.01123047,0.9477539,-0.2246094,-0.04003906,-0.3955078
927,-0.1875,0,0.125,-0.007324219,-0.01123047,0.9438477,-0.2246094,-0.04003906,-0.3955078
929,-0.4375,-0.0625,0.1875,-0.02685547,0.003417969,0.9750977,-0.2246094,-0.04492188,-0.3774414
931,-0.4375,0.0625,-0.125,-0.03076172,0.01904297,0.9555664,-0.2246094,-0.04492188,-0.3774414
933,-0.125,-0.125,0,-0.02294922,0.02685547,0.9672852,-0.2246094,-0.04492188,-0.3774414
935,-0.3125,0,0.125,-0.03076172,0.007324219,0.9672852,-0.2246094,-0.03271484,-0.3852539
937,-0.25,-0.1875,0.0625,-0.03466797,-0.03076172,0.9672852,-0.2246094,-0.03271484,-0.3852539
939,-0.1875,-0.125,-0.0625,-0.02685547,0.007324219,0.9633789,-0.2246094,-0.03271484,-0.3852539
941,-0.375,0,-0.0625,-0.02294922,0,0.9711914,-0.2319336,-0.04492188,-0.4003906
943,-0.3125,0,-0.0625,-0.02685547,0.02685547,0.9594727,-0.2319336,-0.04492188,-0.4003906
945,-0.1875,0,-0.0625,-0.02294922,-0.01513672,0.9672852,-0.2319336,-0.04492188,-0.4003906
947,-0.0625,-0.1875,0.0625,-0.02685547,0,0.9907227,-0.2319336,-0.04492188,-0.4003906
949,-0.1875,0,0,-0.02685547,0.003417969,0.9672852,-0.2246094,-0.03515625,-0.3876953
951,-0.3125,0,0.0625,-0.03857422,0.007324219,0.9438477,-0.2246094,-0.03515625,-0.3876953
953,-0.1875,-0.25,0.125,-0.03076172,0.01513672,0.9790039,-0.2246094,-0.03515625,-0.3876953
955,-0.125,-0.1875,0,-0.03076172,-0.007324219,0.9516602,-0.2246094,-0.03759766,-0.3901367
957,-0.125,0,0,-0.03076172,0,0.9672852,-0.2246094,-0.03759766,-0.3901367
959,-0.1875,0,-0.0625,-0.03076172,0.01123047,0.9672852,-0.2246094,-0.03759766,-0.3901367
961,-0.5,0.125,0.125,-0.01513672,0,0.9594727,-0.2246094,-0.04003906,-0.3876953
963,-0.25,0,0,-0.02685547,0.007324219,0.9711914,-0.2246094,-0.04003906,-0.3876953
965,-0.125,0,0,-0.02685547,0.01513672,0.9790039,-0.2246094,-0.04003906,-0.3876953
967,-0.0625,0.0625,0.125,-0.03466797,0.01123047,0.9438477,-0.2246094,-0.04003906,-0.3876953
969,0,-0.125,-0.0625,-0.007324219,0,0.9438477,-0.2416992,-0.03759766,-0.4003906
971,-0.4375,-0.125,0.0625,-0.03466797,0.02294922,0.9438477,-0.2416992,-0.03759766,-0.4003906
974,-0.4375,0.0625,0.125,-0.03076172,0.007324219,0.9555664,-0.2416992,-0.03759766,-0.4003906
976,-0.3125,-0.125,-0.125,-0.01513672,0.01123047,0.9477539,-0.2294922,-0.04248047,-0.3925781
978,-0.3125,0,0.125,-0.01513672,0.01904297,0.9672852,-0.2294922,-0.04248047,-0.3925781
980,-0.25,-0.125,-0.125,-0.01513672,0.01123047,0.9711914,-0.2294922,-0.04248047,-0.3925781
982,-0.375,0.125,-0.125,-0.02685547,0,0.9477539,-0.2294922,-0.04248047,-0.3925781
984,-0.125,0,0.0625,-0.02294922,0.003417969,0.9594727,-0.2294922,-0.04248047,-0.3925781
986,-0.3125,0,-0.125,-0.03076172,0.01513672,0.9438477,-0.2294922,-0.04248047,-0.3925781
988,-0.25,0,-0.0625,-0.03076172,0.01123047,0.9672852,-0.2294922,-0.04248047,-0.3925781
990,-0.25,0,0.0625,-0.03076172,0,0.9477539,-0.2392578,-0.03759766,-0.3852539
992,-0.125,-0.0625,-0.125,-0.01513672,0.01904297,0.9399414,-0.2392578,-0.03759766,-0.3852539
994,-0.5,0,0.0625,-0.01123047,0.003417969,0.9790039,-0.2392578,-0.03759766,-0.3852539
996,-0.0625,0.3125,0,-0.02685547,0.01904297,0.9711914,-0.246582,-0.04003906,-0.3876953
998,-0.1875,-0.125,0,-0.03466797,0.02294922,0.9672852,-0.246582,-0.04003906,-0.3876953
1000,-0.1875,0,0,-0.02685547,0.003417969,0.9829102,-0.246582,-0.04003906,-0.3876953
1002,-0.3125,0,0.0625,-0.03466797,0.007324219,0.9321289,-0.246582,-0.04003906,-0.3876953
1004,-0.25,-0.125,-0.1875,-0.03076172,-0.003417969,0.9829102,-0.246582,-0.04003906,-0.3876953
1006,-0.375,0.125,0.1875,-0.02685547,0,0.9711914,-0.246582,-0.04003906,-0.3876953
1008,-0.25,0,0,-0.02685547,0.01513672,0.9790039,-0.246582,-0.04003906,-0.3876953
1010,-0.25,-0.1875,-0.125,-0.01513672,0.003417969,0.9750977,-0.2368164,-0.04736328,-0.3925781
1012,-0.125,-0.0625,-0.0625,-0.007324219,0.007324219,0.9555664,-0.2368164,-0.04736328,-0.3925781
1014,-0.1875,0,0.125,-0.02294922,-0.01123047,0.9711914,-0.2368164,-0.04736328,-0.3925781
1016,-0.3125,0.0625,-0.0625,-0.01513672,0.007324219,0.9829102,-0.2294922,-0.03515625,-0.3901367
1018,-0.3125,-0.3125,0.0625,-0.03076172,0.007324219,0.9711914,-0.2294922,-0.03515625,-0.3901367
1020,-0.0625,0.0625,0.0625,-0.02685547,0.02294922,0.9672852,-0.2294922,-0.03515625,-0.3901367
1022,-0.3125,0.25,0,-0.02294922,0,0.9555664,-0.2294922,-0.03515625,-0.3901367
1024,-0.125,-0.125,-0.0625,-0.03076172,0.01904297,0.9555664,-0.2270508,-0.04492188,-0.3955078
1026,-0.3125,0,0,-0.02294922,0,0.9594727,-0.2270508,-0.04492188,-0.3955078
1028,-0.1875,-0.0625,0.125,-0.03076172,0,0.9516602,-0.2270508,-0.04492188,-0.3955078
1030,-0.25,0,-0.0625,-0.01904297,0.01123047,0.9829102,-0.2294922,-0.04248047,-0.3925781
1032,0,0.125,0.125,-0.03076172,-0.007324219,0.9594727,-0.2294922,-0.04248047,-0.3925781
1034,-0.25,0.125,0,-0.03076172,-0.003417969,0.9321289,-0.2294922,-0.04248047,-0.3925781
1036,-0.25,-0.125,-0.0625,-0.01123047,0,0.9321289,-0.2270508,-0.04003906,-0.3901367
1038,-0.125,-0.1875,0.0625,-0.02685547,0.01123047,0.9516602,-0.2270508,-0.04003906,-0.3901367
1040,-0.25,0,-0.1875,-0.02294922,0.007324219,0.9243164,-0.2270508,-0.04003906,-0.3901367
1042,-0.25,-0.0625,-0.0625,-0.03076172,0.01513672,0.9438477,-0.2270508,-0.04003906,-0.3901367
1044,-0.375,0,-0.125,-0.04248047,0.01513672,0.9399414,-0.2392578,-0.04248047,-0.3901367
1046,-0.25,0,0,-0.03076172,0.01123047,0.9516602,-0.2392578,-0.04248047,-0.3901367
1048,-0.125,0,-0.125,-0.02685547,-0.003417969,0.9555664,-0.2392578,-0.04248047,-0.3901367
1050,-0.25,-0.125,-0.125,-0.04638672,0.007324219,0.9985352,-0.2319336,-0.03515625,-0.3876953
1052,-0.1875,-0.25,0,-0.03076172,0.007324219,0.9672852,-0.2319336,-0.03515625,-0.3876953
1054,-0.1875,0.0625,0,-0.03076172,0.02685547,0.9438477,-0.2319336,-0.03515625,-0.3876953
1056,-0.3125,-0.125,0.0625,-0.02294922,0.02294922,0.9672852,-0.2319336,-0.04003906,-0.3901367
1058,-0.25,0,0.125,-0.007324219,0.007324219,0.9711914,-0.2319336,-0.04003906,-0.3901367
1060,-0.1875,0.0625,0.0625,-0.03076172,0.003417969,0.9829102,-0.2319336,-0.04003906,-0.3901367
1062,-0.125,0.0625,0,-0.03466797,0.007324219,0.9711914,-0.2319336,-0.04003906,-0.3901367
1064,-0.125,0,0.125,-0.03857422,0,0.9438477,-0.2392578,-0.04248047,-0.3852539
1066,-0.3125,0.1875,0,-0.02685547,0,0.9516602,-0.2392578,-0.04248047,-0.3852539
1068,-0.125,-0.125,-0.125,-0.01904297,-0.03076172,0.9672852,-0.2392578,-0.04248047,-0.3852539
1070,-0.3125,0,0,-0.02294922,0.01513672,0.9790039,-0.2319336,-0.04248047,-0.3901367
1072,-0.375,-0.25,0.125,-0.03857422,0.007324219,0.9594727,-0.2319336,-0.04248047,-0.3901367
1074,-0.0625,-0.125,0.0625,-0.03076172,0.003417969,0.9750977,-0.2319336,-0.04248047,-0.3901367
1076,-0.1875,0.0625,0.0625,-0.03466797,0.003417969,0.9321289,-0.2319336,-0.04248047,-0.3901367
1078,-0.125,0,0.0625,-0.02685547,0.007324219,0.9633789,-0.2319336,-0.04248047,-0.3901367
1080,-0.3125,0.0625,-0.125,-0.04248047,0.007324219,0.9438477,-0.2319336,-0.04248047,-0.3901367
1082,-0.0625,0,0.125,-0.02294922,0.01513672,0.9516602,-0.2319336,-0.04248047,-0.3901367
1084,-0.125,-0.125,0,-0.02685547,0.01123047,0.9438477,-0.2319336,-0.03759766,-0.3901367
1086,-0.125,-0.125,0.0625,-0.04248047,0.007324219,0.9399414,-0.2319336,-0.03759766,-0.3901367
1088,-0.1875,0,-0.1875,-0.03076172,-0.007324219,0.9829102,-0.2319336,-0.03759766,-0.3901367
1090,-0.125,0,0,-0.03076172,0.01123047,0.9868164,-0.2294922,-0.04248047,-0.3955078
1092,-0.1875,-0.125,-0.125,-0.01904297,0.003417969,0.9672852,-0.2294922,-0.04248047,-0.3955078
1094,-0.125,0.0625,0.125,-0.02294922,0.007324219,0.9516602,-0.2294922,-0.04248047,-0.3955078
1096,-0.125,-0.1875,0,-0.02294922,-0.007324219,0.9516602,-0.2294922,-0.04248047,-0.3955078
1098,-0.375,-0.0625,0.0625,-0.02294922,0.007324219,0.9555664,-0.2294922,-0.04248047,-0.3955078
1100,-0.1875,0,-0.0625,-0.01513672,0.003417969,0.9672852,-0.2294922,-0.04248047,-0.3955078
1104,-0.25,0.0625,-0.0625,-0.02294922,-0.007324219,0.9672852,-0.2294922,-0.04248047,-0.3955078
1106,-0.25,-0.3125,-0.125,-0.03076172,-0.003417969,0.9672852,-0.2319336,-0.04248047,-0.3852539
1108,-0.125,-0.1875,0,-0.02685547,0.01513672,0.9438477,-0.2319336,-0.04248047,-0.3852539
1110,-0.3125,0,-0.1875,-0.04638672,0,0.9477539,-0.2319336,-0.04248047,-0.3852539
1112,-0.1875,0,0.1875,-0.01904297,-0.007324219,0.9477539,-0.2368164,-0.03027344,-0.3955078
1114,-0.0625,0,0,-0.01513672,0,0.9790039,-0.2368164,-0.03027344,-0.3955078
1116,-0.1875,0,0,-0.02294922,-0.003417969,0.9790039,-0.2368164,-0.03027344,-0.3955078
1118,-0.1875,0.0625,0,-0.02294922,0,0.9711914,-0.2368164,-0.03027344,-0.3955078
1120,-0.375,0,0,-0.02685547,-0.007324219,0.9555664,-0.2319336,-0.04248047,-0.3901367
1122,-0.125,-0.25,0,-0.03076172,0.01513672,0.9516602,-0.2319336,-0.04248047,-0.3901367
1124,-0.3125,0,-0.125,-0.05029297,0.007324219,0.9633789,-0.2319336,-0.04248047,-0.3901367
1126,-0.0625,0.0625,-0.1875,-0.02294922,0,0.9555664,-0.2368164,-0.04492188,-0.3852539
1128,-0.1875,0,0,-0.01513672,0.003417969,0.9672852,-0.2368164,-0.04492188,-0.3852539
1130,-0.25,0,-0.0625,-0.02294922,0.003417969,0.9360352,-0.2368164,-0.04492188,-0.3852539
1132,-0.125,0,0.0625,-0.03076172,0.02294922,0.9555664,-0.2294922,-0.04003906,-0.4003906
1134,-0.1875,0,0.125,-0.02294922,0.003417969,0.9672852,-0.2294922,-0.04003906,-0.4003906
1136,-0.0625,-0.125,-0.125,-0.03076172,0.003417969,0.9946289,-0.2294922,-0.04003906,-0.4003906
1138,-0.25,-0.125,0,-0.01513672,-0.003417969,0.9672852,-0.2294922,-0.04003906,-0.4003906
1140,-0.125,0.1875,0,-0.03076172,0.01513672,0.9672852,-0.2392578,-0.04003906,-0.3852539
1142,0,0.1875,-0.0625,-0.03466797,0,0.9750977,-0.2392578,-0.04003906,-0.3852539
1144,-0.0625,0.125,0,-0.01123047,-0.003417969,0.9555664,-0.2392578,-0.04003906,-0.3852539
1146,-0.3125,0,-0.125,-0.01513672,0.007324219,0.9516602,-0.2319336,-0.03759766,-0.3852539
1148,-0.25,0.125,0,0,0.02294922,0.9672852,-0.2319336,-0.03759766,-0.3852539
1150,-0.1875,0.125,-0.125,-0.03857422,0.01513672,0.9790039,-0.2319336,-0.03759766,-0.3852539
1152,-0.25,-0.125,0.0625,-0.01904297,0.01513672,0.9516602,-0.2319336,-0.03759766,-0.3852539
1154,-0.1875,0.125,0.125,-0.02685547,0.01123047,0.9750977,-0.2319336,-0.03759766,-0.3852539
1156,-0.125,0,-0.0625,-0.02685547,0.01513672,0.9672852,-0.2319336,-0.03759766,-0.3852539
1158,-0.1875,-0.125,0.0625,-0.02685547,-0.003417969,0.9477539,-0.2319336,-0.03759766,-0.3852539
1160,-0.1875,-0.125,0.0625,-0.02685547,0.003417969,0.9711914,-0.2319336,-0.04492188,-0.3901367
1162,-0.1875,0.0625,-0.125,-0.04248047,0.003417969,0.9672852,-0.2319336,-0.04492188,-0.3901367
1164,-0.125,-0.125,-0.0625,-0.01513672,0.01123047,0.9711914,-0.2319336,-0.04492188,-0.3901367
1166,-0.1875,-0.125,0,-0.04248047,0.02685547,0.9516602,-0.2368164,-0.03759766,-0.3955078
1168,-0.25,-0.125,0.125,-0.02685547,0.01513672,0.9711914,-0.2368164,-0.03759766,-0.3955078
1170,0,-0.125,-0.1875,-0.03076172,0.003417969,0.9711914,-0.2368164,-0.03759766,-0.3955078
1172,-0.0625,0.0625,0.0625,-0.03076172,0,0.9750977,-0.2368164,-0.03759766,-0.3955078
1174,-0.25,0,0.0625,-0.01513672,0.007324219,0.9672852,-0.2368164,-0.03759766,-0.3955078
1176,-0.4375,0,-0.125,-0.02685547,0.03076172,0.9672852,-0.2368164,-0.03759766,-0.3955078
1178,-0.1875,0,0,-0.02685547,0.007324219,0.9594727,-0.2368164,-0.03759766,-0.3955078
1180,-0.0625,-0.125,0.1875,-0.03076172,0,0.9750977,-0.2441406,-0.04003906,-0.3901367
1182,-0.375,-0.1875,-0.0625,-0.02294922,0,0.9555664,-0.2441406,-0.04003906,-0.3901367
1184,-0.25,0,0.125,-0.01904297,0,0.9672852,-0.2441406,-0.04003906,-0.3901367
1186,-0.125,0,-0.0625,-0.01904297,-0.007324219,0.9711914,-0.2392578,-0.03271484,-0.3901367
1188,-0.125,-0.1875,0.0625,-0.01513672,0.003417969,0.9672852,-0.2392578,-0.03271484,-0.3901367
1190,-0.3125,0.1875,0,-0.02294922,-0.007324219,0.9594727,-0.2392578,-0.03271484,-0.3901367
1192,-0.1875,0,0,-0.007324219,-0.007324219,0.9555664,-0.2392578,-0.03271484,-0.3901367
1194,-0.1875,0,0.0625,-0.03076172,0.02294922,0.9555664,-0.2319336,-0.03759766,-0.3876953
1196,-0.1875,-0.125,0.0625,-0.01904297,-0.007324219,0.9516602,-0.2319336,-0.03759766,-0.3876953
1198,-0.25,-0.1875,0,-0.04638672,0.007324219,0.9555664,-0.2319336,-0.03759766,-0.3876953
1200,-0.25,0.125,-0.1875,-0.03076172,0.01123047,0.9555664,-0.2416992,-0.04003906,-0.3876953
1202,-0.4375,0.25,-0.0625,-0.01904297,0.007324219,0.9711914,-0.2416992,-0.04003906,-0.3876953
1204,-0.125,0,0.125,-0.03857422,0.02685547,0.9438477,-0.2416992,-0.04003906,-0.3876953
1206,-0.0625,0.0625,0,-0.03076172,0.003417969,0.9555664,-0.2368164,-0.03759766,-0.3901367
1208,-0.1875,-0.125,0,-0.03076172,0.01123047,0.9438477,-0.2368164,-0.03759766,-0.3901367
1210,-0.0625,0.0625,0,-0.03076172,0.007324219,0.9633789,-0.2368164,-0.03759766,-0.3901367
1212,-0.1875,0,-0.1875,-0.01904297,0.003417969,0.9438477,-0.2368164,-0.03759766,-0.3901367
1214,-0.1875,0,0.0625,-0.02294922,0.02294922,0.9672852,-0.2416992,-0.04003906,-0.3876953
1216,-0.25,0,-0.125,-0.02685547,0.003417969,0.9672852,-0.2416992,-0.04003906,-0.3876953
1218,-0.3125,0,-0.0625,-0.02294922,0.007324219,0.9829102,-0.2416992,-0.04003906,-0.3876953
1220,-0.125,0,0.0625,-0.02294922,0.003417969,0.9711914,-0.2416992,-0.03515625,-0.3955078
1222,0,0.0625,-0.1875,-0.01513672,0.01513672,0.9477539,-0.2416992,-0.03515625,-0.3955078
1224,-0.375,0,0,-0.01904297,0.003417969,0.9516602,-0.2416992,-0.03515625,-0.3955078
1226,-0.0625,0.0625,0.125,-0.01123047,0,0.9750977,-0.2416992,-0.04248047,-0.3876953
1228,-0.125,0.0625,0.125,-0.02294922,-0.003417969,0.9750977,-0.2416992,-0.04248047,-0.3876953
1230,-0.0625,0,0.0625,0,0.007324219,0.9750977,-0.2416992,-0.04248047,-0.3876953
1233,-0.125,0.1875,0.125,-0.03466797,0.01513672,0.9399414,-0.2416992,-0.04248047,-0.3876953
1235,-0.25,0,0,-0.04248047,0.01123047,0.9555664,-0.2294922,-0.04492188,-0.3852539
1237,-0.25,0,-0.0625,-0.02685547,0,0.9555664,-0.2294922,-0.04492188,-0.3852539
1239,-0.1875,0,-0.0625,-0.01904297,-0.007324219,0.9399414,-0.2294922,-0.04492188,-0.3852539
1241,0,0,-0.0625,-0.02294922,-0.01123047,0.9399414,-0.2294922,-0.04980469,-0.3979492
1243,-0.4375,-0.1875,0,-0.03076172,0,0.9555664,-0.2294922,-0.04980469,-0.3979492
1245,-0.0625,-0.125,0.1875,-0.01513672,-0.01123047,0.9555664,-0.2294922,-0.04980469,-0.3979492
1247,-0.125,0.0625,0.0625,-0.01513672,0,0.9672852,-0.2294922,-0.04980469,-0.3979492
1249,-0.25,0,0,-0.02685547,0.007324219,0.9516602,-0.2294922,-0.04980469,-0.3979492
1251,-0.25,0.0625,0.125,-0.003417969,-0.003417969,0.9594727,-0.2294922,-0.04980469,-0.3979492
1253,-0.1875,-0.125,0.25,0,0.01513672,0.9399414,-0.2294922,-0.04980469,-0.3979492
1255,-0.125,0.0625,-0.0625,-0.04248047,0.01904297,0.9829102,-0.2270508,-0.04980469,-0.3901367
1257,-0.125,0,0,-0.03857422,-0.007324219,0.9790039,-0.2270508,-0.04980469,-0.3901367
1259,-0.375,0.1875,0.1875,-0.01904297,-0.01513672,0.9438477,-0.2270508,-0.04980469,-0.3901367
1261,-0.25,-0.125,0,-0.02294922,0.007324219,0.9438477,-0.2368164,-0.05224609,-0.3979492
1263,-0.25,0,-0.1875,-0.02294922,0.003417969,0.9790039,-0.2368164,-0.05224609,-0.3979492
1265,-0.125,0.1875,-0.125,-0.02685547,0.003417969,0.9594727,-0.2368164,-0.05224609,-0.3979492
1267,-0.125,-0.1875,0.0625,-0.03857422,0.007324219,0.9790039,-0.2368164,-0.05224609,-0.3979492
1269,-0.25,0,0.125,-0.03076172,0.003417969,0.9672852,-0.2368164,-0.05224609,-0.3979492
1271,-0.25,0.1875,0.0625,-0.02685547,0.003417969,0.9555664,-0.2368164,-0.05224609,-0.3979492
1273,-0.25,0.0625,0.125,-0.007324219,0.003417969,0.9555664,-0.2368164,-0.05224609,-0.3979492
1275,-0.125,0,-0.125,-0.02685547,0.003417969,0.9516602,-0.2294922,-0.03515625,-0.3925781
1277,-0.0625,-0.1875,0.125,-0.02685547,0.003417969,0.9750977,-0.2294922,-0.03515625,-0.3925781
1279,-0.1875,-0.25,-0.125,-0.01904297,0.003417969,0.9711914,-0.2294922,-0.03515625,-0.3925781
1281,-0.0625,0.0625,-0.0625,-0.03076172,0.007324219,0.9750977,-0.2392578,-0.03759766,-0.4003906
1283,-0.1875,0.0625,0,-0.01904297,0.007324219,0.9516602,-0.2392578,-0.03759766,-0.4003906
1285,-0.125,-0.125,0.125,-0.01513672,0.01123047,0.9750977,-0.2392578,-0.03759766,-0.4003906
1287,-0.125,-0.25,-0.0625,-0.02294922,-0.01513672,0.9829102,-0.2392578,-0.03759766,-0.4003906
1289,-0.0625,0,-0.0625,-0.02294922,0.01123047,0.9516602,-0.234375,-0.04003906,-0.4003906
1291,-0.1875,-0.125,0.0625,-0.01513672,-0.01123047,0.9790039,-0.234375,-0.04003906,-0.4003906
1293,-0.125,0,-0.0625,-0.03857422,0.01123047,0.9672852,-0.234375,-0.04003906,-0.4003906
1295,-0.4375,0,-0.0625,-0.02685547,-0.01123047,0.9750977,-0.2270508,-0.03759766,-0.3876953
1297,-0.1875,-0.125,-0.0625,-0.02685547,0.01123047,0.9672852,-0.2270508,-0.03759766,-0.3876953
1299,-0.0625,0,0,-0.02685547,-0.003417969,0.9672852,-0.2270508,-0.03759766,-0.3876953
1301,-0.25,0,0.0625,-0.01904297,0.01123047,0.9750977,-0.2368164,-0.04003906,-0.3925781
1303,-0.125,-0.0625,-0.125,-0.02294922,0.003417969,0.9672852,-0.2368164,-0.04003906,-0.3925781
1305,-0.0625,-0.125,0.125,-0.02294922,0.007324219,0.9594727,-0.2368164,-0.04003906,-0.3925781
1307,-0.25,0.1875,0,-0.02294922,0.01904297,0.9516602,-0.2368164,-0.04003906,-0.3925781
1309,-0.125,-0.125,-0.125,-0.03076172,0.01904297,0.9555664,-0.2319336,-0.03515625,-0.3955078
1311,-0.125,-0.25,-0.125,-0.03076172,-0.007324219,0.9594727,-0.2319336,-0.03515625,-0.3955078
1313,-0.1875,-0.0625,0,-0.01513672,0.01513672,0.9477539,-0.2319336,-0.03515625,-0.3955078
1315,-0.0625,0.125,0,-0.03076172,0.01123047,0.9672852,-0.2416992,-0.03515625,-0.3901367
1317,-0.1875,0.0625,-0.1875,-0.003417969,0.01904297,0.9516602,-0.2416992,-0.03515625,-0.3901367
1319,-0.1875,0,0.0625,-0.02685547,0.007324219,0.9750977,-0.2416992,-0.03515625,-0.3901367
1321,0,0,-0.0625,-0.02294922,0.01904297,0.9672852,-0.2294922,-0.04003906,-0.3901367
1323,-0.3125,0,0.125,-0.03076172,0.01513672,0.9750977,-0.2294922,-0.04003906,-0.3901367
1325,-0.3125,0.0625,0.1875,-0.02294922,0.003417969,0.9633789,-0.2294922,-0.04003906,-0.3901367
1327,-0.3125,-0.125,0.0625,-0.03076172,0,0.9399414,-0.2294922,-0.04003906,-0.3901367
1329,-0.3125,-0.125,0,-0.03076172,0,0.9555664,-0.234375,-0.03515625,-0.3901367
1331,-0.1875,-0.1875,-0.125,-0.007324219,-0.007324219,0.9829102,-0.234375,-0.03515625,-0.3901367
1333,-0.125,0.0625,-0.0625,-0.01904297,0.01904297,0.9711914,-0.234375,-0.03515625,-0.3901367
1335,-0.125,0,0.0625,-0.03857422,0.003417969,0.9438477,-0.2368164,-0.04003906,-0.3955078
1337,-0.4375,-0.125,-0.0625,-0.01904297,0.01904297,0.9711914,-0.2368164,-0.04003906,-0.3955078
1339,0,-0.1875,0.25,-0.01123047,0,0.9672852,-0.2368164,-0.04003906,-0.3955078
1341,-0.1875,0,-0.0625,-0.03076172,0.01513672,0.9633789,-0.2368164,-0.04003906,-0.3955078
1343,-0.125,-0.125,-0.0625,-0.03466797,0.01513672,0.9672852,-0.2368164,-0.04003906,-0.3955078
1345,-0.0625,-0.125,-0.125,-0.02294922,0.01513672,0.9750977,-0.2368164,-0.04003906,-0.3955078
1347,-0.125,0.0625,0.0625,-0.02294922,0,0.9750977,-0.2368164,-0.04003906,-0.3955078
1349,-0.4375,0,0,-0.02685547,0.02294922,0.9672852,-0.2270508,-0.03515625,-0.402832
1351,-0.4375,0,0.0625,-0.01123047,0,0.9672852,-0.2270508,-0.03515625,-0.402832
1353,0,-0.0625,0.0625,-0.02294922,0.01123047,0.9516602,-0.2270508,-0.03515625,-0.402832
1355,-0.1875,0.0625,-0.125,-0.03076172,0.01513672,0.9711914,-0.234375,-0.04492188,-0.4057617
1357,-0.25,-0.1875,0.25,-0.03857422,-0.007324219,0.9790039,-0.234375,-0.04492188,-0.4057617
1359,-0.125,0,-0.125,-0.02685547,0.03076172,0.9672852,-0.234375,-0.04492188,-0.4057617
1362,-0.4375,-0.125,0.0625,-0.01513672,-0.003417969,0.9711914,-0.234375,-0.04492188,-0.4057617
1364,-0.1875,0,0,-0.03076172,0.01904297,0.9750977,-0.234375,-0.04492188,-0.4057617
1366,-0.375,0.0625,0.1875,-0.02685547,-0.007324219,0.9438477,-0.234375,-0.04492188,-0.4057617
1368,-0.125,-0.125,0,-0.02685547,0.01123047,0.9672852,-0.234375,-0.04492188,-0.4057617
1370,-0.125,0.125,0.1875,-0.01513672,0.003417969,0.9516602,-0.2368164,-0.03515625,-0.3955078
1372,-0.25,0,0.125,-0.01123047,0.007324219,0.9711914,-0.2368164,-0.03515625,-0.3955078
1374,-0.0625,0,0.125,-0.01513672,0.01123047,0.9672852,-0.2368164,-0.03515625,-0.3955078
1376,-0.25,0,0,-0.03076172,0.02685547,0.9672852,-0.2368164,-0.04003906,-0.3876953
1378,-0.125,0.125,0.0625,-0.01513672,-0.003417969,0.9790039,-0.2368164,-0.04003906,-0.3876953
1380,-0.25,-0.125,0,-0.03076172,0.01123047,0.9790039,-0.2368164,-0.04003906,-0.3876953
1382,-0.4375,0.0625,-0.0625,-0.01513672,-0.007324219,0.9555664,-0.2368164,-0.04003906,-0.3876953
1384,-0.125,-0.1875,-0.1875,-0.007324219,0.007324219,0.9672852,-0.2392578,-0.04003906,-0.4003906
1386,-0.25,0.0625,-0.0625,-0.03076172,0.01904297,0.9868164,-0.2392578,-0.04003906,-0.4003906
1388,0,0,-0.0625,-0.01904297,0.007324219,0.9438477,-0.2392578,-0.04003906,-0.4003906
1390,-0.4375,0,0.0625,-0.03076172,-0.007324219,0.9711914,-0.234375,-0.04248047,-0.3925781
1392,-0.0625,0.0625,-0.125,-0.02294922,0.01513672,0.9711914,-0.234375,-0.04248047,-0.3925781
1394,-0.1875,-0.125,0.1875,-0.02294922,-0.007324219,0.9711914,-0.234375,-0.04248047,-0.3925781
1396,-0.25,-0.0625,0.0625,-0.01904297,-0.007324219,0.9438477,-0.2246094,-0.03027344,-0.3901367
1398,-0.375,-0.125,0.0625,-0.02685547,0.01904297,0.9438477,-0.2246094,-0.03027344,-0.3901367
1400,-0.1875,0.125,0.0625,-0.01904297,0.02294922,0.9594727,-0.2246094,-0.03027344,-0.3901367
1402,0,-0.125,0,-0.02685547,0.007324219,0.9477539,-0.2246094,-0.03027344,-0.3901367
1404,-0.0625,0,0.1875,-0.03466797,0.01904297,0.9711914,-0.2319336,-0.03027344,-0.3876953
1406,-0.1875,0,0,-0.02685547,0.01123047,0.9672852,-0.2319336,-0.03027344,-0.3876953
1408,-0.125,0,0,-0.02685547,0.007324219,0.9672852,-0.2319336,-0.03027344,-0.3876953
1410,-0.1875,0,0.0625,-0.01513672,0.007324219,0.9711914,-0.2319336,-0.04492188,-0.3955078
1412,-0.4375,-0.125,0.1875,-0.01513672,0.007324219,0.9555664,-0.2319336,-0.04492188,-0.3955078
1414,-0.3125,-0.25,0,-0.02685547,0.01513672,0.9516602,-0.2319336,-0.04492188,-0.3955078
1416,-0.125,0,0,-0.03076172,-0.007324219,0.9711914,-0.2319336,-0.04492188,-0.3955078
1418,-0.1875,-0.125,-0.0625,-0.01123047,0.007324219,0.9750977,-0.2319336,-0.04492188,-0.3955078
1420,-0.25,0,0.0625,-0.02685547,0,0.9750977,-0.2319336,-0.04492188,-0.3955078
1422,-0.1875,-0.0625,0,-0.03076172,-0.003417969,0.9321289,-0.2319336,-0.04492188,-0.3955078
1424,-0.125,0,0.125,-0.02294922,0.01123047,0.9477539,-0.2392578,-0.03759766,-0.3876953
1426,-0.125,0,-0.0625,-0.03857422,0.01904297,0.9750977,-0.2392578,-0.03759766,-0.3876953
1428,-0.125,0,0.0625,-0.02685547,0,0.9672852,-0.2392578,-0.03759766,-0.3876953
1430,-0.25,-0.1875,-0.125,-0.02294922,-0.003417969,0.9594727,-0.2246094,-0.04736328,-0.3901367
1432,-0.0625,0,0.125,-0.03076172,0.007324219,0.9711914,-0.2246094,-0.04736328,-0.3901367
1434,-0.375,0,0.0625,-0.02294922,-0.007324219,0.9321289,-0.2246094,-0.04736328,-0.3901367
1436,-0.1875,0.0625,0.0625,-0.02294922,0.007324219,0.9672852,-0.2246094,-0.04736328,-0.3901367
1438,-0.1875,0,0,-0.03076172,0,0.9555664,-0.2246094,-0.04736328,-0.3901367
1440,-0.25,0.0625,-0.0625,-0.02685547,0.02294922,0.9633789,-0.2246094,-0.04736328,-0.3901367
1442,-0.0625,0.0625,0.0625,-0.02685547,0,0.9672852,-0.2246094,-0.04736328,-0.3901367
1444,-0.4375,0,-0.0625,-0.03857422,0.01123047,0.9750977,-0.2319336,-0.03759766,-0.3955078
1446,-0.1875,0,0.0625,-0.01123047,0,0.9711914,-0.2319336,-0.03759766,-0.3955078
1448,-0.0625,0,-0.0625,-0.01513672,0.003417969,0.9672852,-0.2319336,-0.03759766,-0.3955078
1450,-0.375,0.0625,0,-0.03076172,0.01513672,0.9711914,-0.2270508,-0.04248047,-0.3925781
1452,-0.375,0.0625,0.125,-0.02294922,0.01513672,0.9672852,-0.2270508,-0.04248047,-0.3925781
1454,0,0,0,-0.03076172,0.007324219,0.9907227,-0.2270508,-0.04248047,-0.3925781
1456,-0.0625,-0.0625,0.125,-0.02294922,0.01904297,0.9594727,-0.2270508,-0.04248047,-0.3925781
1458,-0.25,0,0.0625,-0.03466797,-0.01513672,0.9477539,-0.2319336,-0.04492188,-0.3979492
1460,-0.0625,0,-0.0625,-0.03857422,0.03076172,0.9555664,-0.2319336,-0.04492188,-0.3979492
1462,-0.3125,-0.0625,0,-0.03076172,0.01513672,0.9829102,-0.2319336,-0.04492188,-0.3979492
1464,-0.125,0,0.1875,-0.02685547,0.003417969,0.9790039,-0.2368164,-0.04003906,-0.4003906
1466,-0.125,-0.125,0,-0.03076172,0.01513672,0.9711914,-0.2368164,-0.04003906,-0.4003906
1468,-0.125,0,0,-0.03857422,0,0.9829102,-0.2368164,-0.04003906,-0.4003906
1470,-0.0625,0,0,-0.02685547,0.01513672,0.9711914,-0.2246094,-0.04248047,-0.3979492
1472,-0.25,-0.25,0.0625,-0.03076172,0.03076172,0.9790039,-0.2246094,-0.04248047,-0.3979492
1474,-0.125,0.1875,-0.0625,-0.03076172,0,0.9711914,-0.2246094,-0.04248047,-0.3979492
1476,-0.25,0.25,0.125,-0.02685547,0.003417969,0.9711914,-0.2246094,-0.04248047,-0.3979492
1478,-0.1875,0,0.0625,-0.01123047,0.01513672,0.9555664,-0.2319336,-0.03759766,-0.4003906
1480,-0.125,0.1875,-0.1875,-0.01513672,0.007324219,0.9672852,-0.2319336,-0.03759766,-0.4003906
1482,-0.375,0,0,-0.01513672,0.01123047,0.9868164,-0.2319336,-0.03759766,-0.4003906
1484,-0.0625,0,0.0625,-0.02685547,0.01123047,0.9750977,-0.2270508,-0.03271484,-0.3901367
1486,-0.1875,-0.125,0.0625,-0.007324219,0.007324219,0.9790039,-0.2270508,-0.03271484,-0.3901367
1488,-0.0625,-0.125,-0.0625,-0.02685547,0.003417969,0.9321289,-0.2270508,-0.03271484,-0.3901367
1491,-0.1875,0,-0.0625,-0.01904297,-0.007324219,0.9711914,-0.2294922,-0.04003906,-0.3852539
1493,-0.25,0,0.0625,-0.02685547,0,0.9594727,-0.2294922,-0.04003906,-0.3852539
1495,-0.1875,-0.25,0.0625,-0.03466797,0.01123047,0.9750977,-0.2294922,-0.04003906,-0.3852539
1497,-0.3125,-0.25,-0.1875,-0.04638672,0.01123047,0.9672852,-0.2294922,-0.04003906,-0.3852539
1499,-1,-1.6875,0.125,-0.06591797,0.03857422,0.5185547,-0.2392578,-0.03759766,-0.3901367
1501,1.25,-3.9375,0.3125,-0.1206055,0.06982422,0.9321289,-0.2392578,-0.03759766,-0.3901367
1503,-0.75,-2.875,0.4375,0.06591797,-0.03857422,1.146484,-0.2392578,-0.03759766,-0.3901367
1505,-0.6875,-1.0625,0.0625,0.01123047,0.04638672,1.189453,-0.2270508,-0.04003906,-0.4003906
1507,-0.6875,0.75,-0.0625,0.007324219,0.003417969,1.154297,-0.2270508,-0.04003906,-0.4003906
1509,-0.1875,1.5625,-0.0625,-0.06591797,-0.01513672,0.9750977,-0.2270508,-0.04003906,-0.4003906
1511,0.25,1.875,-0.0625,-0.03076172,0.003417969,0.8735352,-0.2270508,-0.04003906,-0.4003906
1513,0.125,0.9375,0.0625,-0.05810547,0.01513672,0.8579102,-0.2270508,-0.04003906,-0.4003906
1515,-0.5625,0.125,-0.1875,-0.03076172,0,0.9477539,-0.2270508,-0.04003906,-0.4003906
1517,-0.4375,-0.3125,-0.25,-0.03076172,-0.007324219,0.9360352,-0.2270508,-0.04003906,-0.4003906
1519,-0.1875,0.0625,-0.0625,-0.03857422,0,0.9204102,-0.234375,-0.03027344,-0.4003906
1521,0.125,-0.625,-0.3125,-0.01123047,-0.02294922,1.033203,-0.234375,-0.03027344,-0.4003906
1523,-0.125,0,0.25,0.003417969,0.003417969,1.005859,-0.234375,-0.03027344,-0.4003906
1525,-0.25,0.1875,0.125,-0.01513672,0,0.9516602,-0.2319336,-0.04248047,-0.3925781
1527,-0.5625,0.0625,0.125,-0.01513672,0.01123047,0.9321289,-0.2319336,-0.04248047,-0.3925781
1529,-0.1875,0.125,0.0625,-0.04248047,0.007324219,0.9594727,-0.2319336,-0.04248047,-0.3925781
1531,-0.25,0,-0.0625,-0.03076172,0.03076172,0.9594727,-0.2319336,-0.04248047,-0.3925781
1533,-0.0625,0,-0.1875,-0.03076172,0.02685547,0.9477539,-0.2319336,-0.04248047,-0.3925781
1535,-0.125,-0.25,-0.1875,-0.02294922,0.01513672,0.9438477,-0.2319336,-0.04248047,-0.3925781
1537,0.0625,-0.125,-0.125,-0.01513672,-0.003417969,0.9672852,-0.2319336,-0.04248047,-0.3925781
1539,-0.25,-0.125,0,0,-0.003417969,0.9829102,-0.2368164,-0.04248047,-0.3925781
1541,-0.25,0.3125,0.0625,-0.01123047,-0.01123047,0.9477539,-0.2368164,-0.04248047,-0.3925781
1543,-0.1875,0.0625,0.1875,-0.03076172,0.01513672,0.9321289,-0.2368164,-0.04248047,-0.3925781
1545,-0.0625,0.4375,0.25,-0.04248047,0.01123047,0.9204102,-0.2392578,-0.03515625,-0.3852539
1547,-0.125,0,0,-0.04248047,0.01123047,0.9243164,-0.2392578,-0.03515625,-0.3852539
1549,-0.4375,0,-0.125,-0.05029297,0.02685547,0.9672852,-0.2392578,-0.03515625,-0.3852539
1551,-0.125,-0.3125,-0.125,-0.007324219,0.01513672,1.001953,-0.2392578,-0.03515625,-0.3852539
1553,-0.375,-0.4375,0.0625,-0.003417969,-0.003417969,1.029297,-0.2270508,-0.04003906,-0.3979492
1555,-0.1875,0,0.125,-0.02685547,-0.01513672,1.029297,-0.2270508,-0.04003906,-0.3979492
1557,-0.25,0,0.0625,-0.02294922,-0.02294922,0.9907227,-0.2270508,-0.04003906,-0.3979492
1559,-0.25,0.1875,0.125,-0.01123047,0.003417969,0.9399414,-0.234375,-0.04003906,-0.3901367
1561,-0.1875,0.1875,0.1875,-0.04638672,-0.003417969,0.9086914,-0.234375,-0.04003906,-0.3901367
1563,-0.1875,0.0625,0.125,-0.03076172,0.02685547,0.9204102,-0.234375,-0.04003906,-0.3901367
1565,-0.1875,-0.125,0.0625,-0.03076172,0.01904297,0.9594727,-0.234375,-0.04248047,-0.3901367
1567,-0.0625,-0.125,-0.125,-0.03076172,0.02685547,0.9672852,-0.234375,-0.04248047,-0.3901367
1569,-0.1875,0,0,-0.02294922,-0.003417969,1.009766,-0.234375,-0.04248047,-0.3901367
1571,-0.25,-0.0625,0.0625,-0.01123047,0.003417969,0.9985352,-0.234375,-0.04248047,-0.3901367
1573,-0.4375,0.0625,0.0625,-0.02294922,0.02294922,0.9829102,-0.2368164,-0.03759766,-0.3901367
1575,-0.4375,0.3125,0,-0.02685547,0.01123047,0.9477539,-0.2368164,-0.03759766,-0.3901367
1577,-0.3125,0.0625,0.125,-0.02685547,0.01513672,0.9477539,-0.2368164,-0.03759766,-0.3901367
1579,-0.0625,-0.1875,0,-0.02685547,-0.003417969,0.9243164,-0.2270508,-0.03759766,-0.3925781
1581,0,-0.125,0.0625,-0.01513672,0.007324219,0.9399414,-0.2270508,-0.03759766,-0.3925781
1583,-0.25,0,0,-0.01513672,0.003417969,0.9594727,-0.2270508,-0.03759766,-0.3925781
1585,-0.25,-0.125,0.0625,-0.02294922,-0.007324219,0.9790039,-0.2294922,-0.03759766,-0.3901367
1587,-0.125,0,0.1875,-0.02294922,0.003417969,0.9750977,-0.2294922,-0.03759766,-0.3901367
1589,-0.25,0.125,0,-0.03857422,0.01513672,0.9750977,-0.2294922,-0.03759766,-0.3901367
1591,-0.3125,0,0.1875,-0.02685547,0.003417969,0.9594727,-0.2294922,-0.03759766,-0.3901367
1593,-0.25,0.25,-0.0625,-0.02685547,0.02294922,0.9672852,-0.234375,-0.04248047,-0.3876953
1595,-0.25,0.0625,0.0625,-0.04248047,0.01904297,0.9750977,-0.234375,-0.04248047,-0.3876953
1597,-0.125,-0.125,-0.0625,-0.04248047,0.01904297,0.9711914,-0.234375,-0.04248047,-0.3876953
1599,-0.1875,0,0.125,-0.01904297,0,0.9555664,-0.2270508,-0.04736328,-0.3955078
1601,-0.1875,0,0.0625,-0.03076172,0.01123047,0.9750977,-0.2270508,-0.04736328,-0.3955078
1603,-0.125,0.1875,0,-0.01904297,0,0.9750977,-0.2270508,-0.04736328,-0.3955078
1605,0,0.0625,0.25,-0.03857422,-0.007324219,0.9516602,-0.2270508,-0.04736328,-0.3955078
1607,-0.1875,0.1875,0.0625,-0.04248047,0.01904297,0.9672852,-0.2270508,-0.04736328,-0.3955078
1609,-0.25,-0.1875,0,-0.02294922,0.02685547,0.9516602,-0.2270508,-0.04736328,-0.3955078
1611,-0.125,-0.125,0,-0.03076172,0.01123047,0.9633789,-0.2270508,-0.04736328,-0.3955078
1613,-0.1875,-0.1875,-0.0625,-0.03076172,0.01904297,0.9672852,-0.2368164,-0.04003906,-0.3876953
1615,-0.25,0,0.25,-0.02294922,0.01123047,0.9946289,-0.2368164,-0.04003906,-0.3876953
1617,-0.4375,0,0,-0.01904297,-0.007324219,0.9829102,-0.2368164,-0.04003906,-0.3876953
1621,-0.125,0.0625,0.0625,-0.02294922,-0.01513672,0.9829102,-0.2416992,-0.04003906,-0.3901367
1623,-0.3125,0,0.125,-0.03076172,-0.003417969,0.9399414,-0.2416992,-0.04003906,-0.3901367
1625,-0.3125,0.25,0,-0.03466797,0.003417969,0.9321289,-0.2416992,-0.04003906,-0.3901367
1627,-0.125,-0.125,0,-0.03076172,0,0.9399414,-0.2416992,-0.04003906,-0.3901367
1629,-0.1875,0.0625,-0.0625,-0.01513672,0.01123047,0.9711914,-0.2416992,-0.04003906,-0.3901367
1631,-0.0625,0,0.0625,-0.03076172,0,0.9516602,-0.2416992,-0.04003906,-0.3901367
1633,-0.25,0.0625,-0.25,-0.02294922,0.01123047,0.9750977,-0.2416992,-0.04003906,-0.3901367
1635,-0.125,0.0625,0,-0.01513672,0,0.9946289,-0.2270508,-0.03759766,-0.3925781
1637,-0.1875,0.25,0,-0.02294922,0.007324219,0.9790039,-0.2270508,-0.03759766,-0.3925781
1639,-0.1875,0.125,0,-0.03857422,0.01123047,0.9516602,-0.2270508,-0.03759766,-0.3925781
1641,-0.3125,0.125,0.0625,-0.02685547,0.003417969,0.9360352,-0.234375,-0.04980469,-0.4057617
1643,-0.0625,0,-0.0625,-0.03076172,-0.007324219,0.9438477,-0.234375,-0.04980469,-0.4057617
1645,-0.0625,0,-0.0625,-0.01513672,-0.007324219,0.9516602,-0.234375,-0.04980469,-0.4057617
1647,0,-0.4375,0,-0.02685547,0,0.9555664,-0.234375,-0.04980469,-0.4057617
1649,-0.4375,0.0625,-0.125,-0.01513672,-0.01123047,0.9672852,-0.2319336,-0.04248047,-0.3876953
1651,-0.25,-0.3125,0.0625,-0.02685547,0,0.9672852,-0.2319336,-0.04248047,-0.3876953
1653,-0.25,0.125,-0.0625,-0.04248047,0.003417969,0.9555664,-0.2319336,-0.04248047,-0.3876953
1655,-0.1875,0.125,0.0625,-0.02294922,0.007324219,0.9594727,-0.2319336,-0.03271484,-0.3901367
1657,-0.3125,-0.0625,0,-0.03857422,0.01904297,0.9790039,-0.2319336,-0.03271484,-0.3901367
1659,-0.1875,0.0625,-0.125,-0.03076172,0.007324219,0.9594727,-0.2319336,-0.03271484,-0.3901367
1661,-0.1875,0,-0.0625,-0.01513672,0.03076172,0.9711914,-0.2319336,-0.03027344,-0.4003906
1663,-0.125,0,0.125,-0.01513672,0.007324219,0.9750977,-0.2319336,-0.03027344,-0.4003906
1665,-0.1875,0.125,0.125,0,-0.003417969,0.9672852,-0.2319336,-0.03027344,-0.4003906
1667,-0.125,0.0625,0,-0.02685547,0,0.9711914,-0.2319336,-0.03027344,-0.4003906
1669,-0.1875,0.0625,0.0625,-0.03466797,0.01123047,0.9594727,-0.2319336,-0.04492188,-0.3901367
1671,-0.1875,0.0625,-0.0625,-0.03076172,0.01513672,0.9672852,-0.2319336,-0.04492188,-0.3901367
1673,0,-0.1875,0.125,-0.02294922,0.003417969,0.9438477,-0.2319336,-0.04492188,-0.3901367
1675,-0.375,0,0.125,-0.03076172,0.007324219,0.9868164,-0.2319336,-0.03271484,-0.3876953
1677,-0.0625,0,-0.125,-0.03857422,0.01123047,0.9711914,-0.2319336,-0.03271484,-0.3876953
1679,-0.125,0,-0.125,-0.03076172,0.01513672,0.9438477,-0.2319336,-0.03271484,-0.3876953
1681,-0.25,0,0.125,-0.003417969,0,0.9750977,-0.2319336,-0.03271484,-0.3876953
1683,-0.125,0.0625,0.125,-0.03076172,0.007324219,0.9204102,-0.2319336,-0.03271484,-0.3876953
1685,-0.1875,0.0625,-0.0625,-0.01513672,0.01513672,0.9477539,-0.2319336,-0.03271484,-0.3876953
1687,-0.4375,0,0.125,-0.02685547,0.03076172,0.9438477,-0.2319336,-0.03271484,-0.3876953
1689,-0.25,-0.125,0.25,-0.01904297,0.007324219,0.9672852,-0.2270508,-0.03759766,-0.3852539
1691,-0.125,0.0625,0,-0.02685547,0.007324219,0.9750977,-0.2270508,-0.03759766,-0.3852539
1693,-0.125,-0.125,0,-0.02294922,-0.003417969,0.9555664,-0.2270508,-0.03759766,-0.3852539
1695,-0.4375,0,-0.125,-0.007324219,0.02685547,0.9829102,-0.2270508,-0.03027344,-0.3852539
1697,-0.3125,0,0.125,-0.02685547,0.003417969,0.9633789,-0.2270508,-0.03027344,-0.3852539
1699,-0.125,0,0,-0.03076172,0.02294922,0.9829102,-0.2270508,-0.03027344,-0.3852539
1701,-0.125,-0.0625,0,-0.02294922,0.01904297,0.9360352,-0.2270508,-0.03027344,-0.3852539
1703,-0.125,0.125,0,-0.03857422,0.01123047,0.9594727,-0.2270508,-0.03027344,-0.3852539
1705,-0.125,0,0.0625,-0.01904297,0,0.9594727,-0.2270508,-0.03027344,-0.3852539
1707,-0.1875,0,-0.125,-0.01123047,0.01904297,0.9555664,-0.2270508,-0.03027344,-0.3852539
1709,-0.25,0.1875,0.0625,-0.02294922,0.02294922,0.9829102,-0.2319336,-0.02783203,-0.3925781
1711,-0.25,0.0625,0.0625,-0.03466797,-0.003417969,0.9711914,-0.2319336,-0.02783203,-0.3925781
1713,-0.0625,0,-0.0625,-0.04248047,0,0.9555664,-0.2319336,-0.02783203,-0.3925781
1715,-0.0625,0,-0.1875,-0.02294922,0.01904297,0.9633789,-0.234375,-0.03027344,-0.3901367
1717,-0.25,0.125,0.125,-0.02294922,0.007324219,0.9711914,-0.234375,-0.03027344,-0.3901367
1719,-0.1875,0,0.125,-0.01904297,0,0.9711914,-0.234375,-0.03027344,-0.3901367
1721,-0.1875,0.0625,0,-0.03076172,0,0.9829102,-0.234375,-0.03027344,-0.3901367
1723,-0.125,0,0,-0.01904297,0.01123047,0.9829102,-0.222168,-0.04003906,-0.3925781
1725,-0.125,0,0.0625,-0.03466797,0.01513672,0.9360352,-0.222168,-0.04003906,-0.3925781
1727,-0.5,0.125,-0.1875,-0.02685547,0.007324219,0.9477539,-0.222168,-0.04003906,-0.3925781
1729,-0.5,-0.0625,0.0625,-0.04638672,0.003417969,0.9672852,-0.2246094,-0.04248047,-0.4003906
1731,-1,-1.6875,0.1875,-0.05419922,0.03857422,0.8266602,-0.2246094,-0.04248047,-0.4003906
1733,2,-4.75,0.25,-0.1245117,0.07763672,0.8422852,-0.2246094,-0.04248047,-0.4003906
1735,-0.4375,-2.1875,0.375,0.08154297,-0.1948242,1.415527,-0.222168,-0.04492188,-0.3852539
1737,-0.0625,-0.375,0.0625,0.05419922,-0.03466797,1.442871,-0.222168,-0.04492188,-0.3852539
1739,-0.75,2.125,0.0625,0.04638672,0.03857422,1.232422,-0.222168,-0.04492188,-0.3852539
1741,-0.5,2.1875,0.125,-0.02685547,0,0.9594727,-0.222168,-0.04492188,-0.3852539
1743,0.5,2.6875,0.0625,-0.05810547,-0.01123047,0.7915039,-0.2246094,-0.03515625,-0.3876953
1745,0.25,1.25,-0.125,-0.07373047,0.03857422,0.8657227,-0.2246094,-0.03515625,-0.3876953
1747,-0.3125,0.3125,-0.3125,-0.04638672,0.01513672,0.9750977,-0.2246094,-0.03515625,-0.3876953
1750,-0.625,0.375,-0.1875,-0.02685547,-0.007324219,0.8696289,-0.2319336,-0.03515625,-0.3876953
1752,-0.125,-0.375,-0.5,-0.03076172,0.007324219,0.8891602,-0.2319336,-0.03515625,-0.3876953
1754,0.125,-0.4375,-0.3125,-0.01123047,-0.03076172,1.013672,-0.2319336,-0.03515625,-0.3876953
1756,0,0,0.1875,0,-0.01513672,1.056641,-0.2416992,-0.04492188,-0.3901367
1758,-0.5625,0.125,0.3125,-0.007324219,-0.003417969,1.025391,-0.2416992,-0.04492188,-0.3901367
1760,-0.75,0.3125,0.3125,-0.03076172,0.02685547,0.9672852,-0.2416992,-0.04492188,-0.3901367
1762,-0.4375,0,-0.125,-0.05029297,0.03076172,0.9438477,-0.2416992,-0.04492188,-0.3901367
1764,-0.0625,-0.1875,-0.0625,-0.04248047,0.03857422,0.9477539,-0.2270508,-0.04248047,-0.3979492
1766,0,-0.3125,-0.25,-0.03466797,0.03076172,0.9672852,-0.2270508,-0.04248047,-0.3979492
1768,-0.1875,0,-0.125,-0.03076172,0.02294922,0.9829102,-0.2270508,-0.04248047,-0.3979492
1770,-0.1875,-0.375,-0.1875,0.003417969,-0.03076172,0.9516602,-0.2294922,-0.03759766,-0.3852539
1772,-0.375,-0.25,-0.1875,0.007324219,0.003417969,0.9555664,-0.2294922,-0.03759766,-0.3852539
1774,-0.1875,0.125,0.125,-0.01123047,-0.007324219,0.9321289,-0.2294922,-0.03759766,-0.3852539
1776,-0.25,0.25,0.1875,-0.02294922,-0.003417969,0.9399414,-0.2294922,-0.03759766,-0.3852539
1778,-0.125,0.3125,0.25,-0.03076172,0,0.9321289,-0.2294922,-0.03759766,-0.3852539
1780,-0.25,0,-0.0625,-0.03857422,0.02685547,0.9594727,-0.2294922,-0.03759766,-0.3852539
1782,-0.0625,-0.25,-0.125,-0.01123047,0.01904297,0.9868164,-0.2294922,-0.03759766,-0.3852539
1784,-0.125,-0.25,-0.0625,-0.02685547,0.02685547,0.9829102,-0.2319336,-0.04003906,-0.3955078
1786,-0.5,-0.3125,-0.0625,-0.01513672,-0.003417969,1.037109,-0.2319336,-0.04003906,-0.3955078
1788,-0.25,0,-0.0625,-0.003417969,-0.01513672,1.044922,-0.2319336,-0.04003906,-0.3955078
1790,-0.1875,0,0.125,-0.01513672,0.003417969,0.9594727,-0.2294922,-0.03759766,-0.3979492
1792,0,0.0625,0,-0.02294922,0,0.9047852,-0.2294922,-0.03759766,-0.3979492
1794,-0.1875,0.3125,0.0625,-0.03076172,0.01513672,0.8891602,-0.2294922,-0.03759766,-0.3979492
1796,-0.125,-0.125,-0.0625,-0.05029297,0.03466797,0.9047852,-0.2294922,-0.03759766,-0.3979492
1798,-0.125,-0.25,0,-0.03076172,0,0.9360352,-0.2294922,-0.03759766,-0.3979492
1800,-0.1875,-0.25,-0.0625,-0.02685547,-0.01123047,0.9985352,-0.2294922,-0.03759766,-0.3979492
1802,-0.1875,-0.25,-0.0625,-0.02685547,0.007324219,1.013672,-0.2294922,-0.03759766,-0.3979492
1804,-0.375,0.1875,-0.0625,-0.01904297,-0.01513672,1.009766,-0.222168,-0.04003906,-0.3955078
1806,-0.375,0.3125,-0.0625,-0.01513672,0.003417969,1.001953,-0.222168,-0.04003906,-0.3955078
1808,-0.4375,0.1875,0.0625,-0.01513672,0.007324219,0.9438477,-0.222168,-0.04003906,-0.3955078
1810,-0.1875,-0.25,0,-0.05029297,0.003417969,0.9282227,-0.2270508,-0.03759766,-0.3925781
1812,-0.1875,0,0,-0.02294922,0.003417969,0.8891602,-0.2270508,-0.03759766,-0.3925781
1814,-0.0625,0,-0.0625,-0.02294922,0,0.9399414,-0.2270508,-0.03759766,-0.3925781
1816,-0.125,0,0,-0.02685547,-0.007324219,0.9438477,-0.2270508,-0.03759766,-0.3925781
1818,-0.25,-0.125,-0.1875,-0.02294922,0.007324219,0.9907227,-0.2392578,-0.04003906,-0.3955078
1820,-0.1875,0.0625,0.125,-0.02685547,-0.01123047,0.9868164,-0.2392578,-0.04003906,-0.3955078
1822,-0.375,0.25,0,-0.007324219,0.01123047,0.9907227,-0.2392578,-0.04003906,-0.3955078
1824,-0.4375,0,0.0625,-0.03076172,0.01513672,0.9516602,-0.222168,-0.04248047,-0.4003906
1826,-0.1875,0.0625,0.0625,-0.02294922,0.01904297,0.9516602,-0.222168,-0.04248047,-0.4003906
1828,-0.25,0,0.0625,-0.02294922,0,0.9594727,-0.222168,-0.04248047,-0.4003906
1830,-0.25,-0.1875,-0.0625,-0.03466797,0.003417969,0.9750977,-0.234375,-0.03027344,-0.3901367
1832,-0.4375,-0.1875,-0.0625,-0.007324219,0.003417969,0.9711914,-0.234375,-0.03027344,-0.3901367
1834,-0.25,0,0,-0.03076172,-0.007324219,0.9672852,-0.234375,-0.03027344,-0.3901367
1836,-0.125,0.0625,0.125,-0.03466797,0,0.9750977,-0.234375,-0.03027344,-0.3901367
1838,-0.125,0.125,-0.0625,-0.03466797,0.007324219,0.9399414,-0.222168,-0.04248047,-0.4003906
1840,-0.125,0,-0.1875,-0.04248047,0.01513672,0.9516602,-0.222168,-0.04248047,-0.4003906
1842,-0.125,0,-0.0625,-0.01513672,0.007324219,0.9399414,-0.222168,-0.04248047,-0.4003906
1844,-0.1875,0,0.0625,-0.02294922,0.01123047,0.9516602,-0.234375,-0.03759766,-0.3876953
1846,-0.125,-0.25,-0.125,-0.02685547,0,0.9711914,-0.234375,-0.03759766,-0.3876953
1848,-0.1875,-0.1875,-0.0625,-0.02685547,0.01123047,0.9790039,-0.234375,-0.03759766,-0.3876953
1850,-0.25,0,-0.125,-0.01513672,0.01904297,0.9868164,-0.2246094,-0.04003906,-0.4003906
1852,-0.125,0.1875,0.0625,-0.01123047,0.01904297,0.9711914,-0.2246094,-0.04003906,-0.4003906
1854,-0.0625,0.1875,0.1875,-0.02294922,0.01123047,0.9555664,-0.2246094,-0.04003906,-0.4003906
1856,-0.25,0.0625,-0.125,-0.01904297,0.003417969,0.9243164,-0.2246094,-0.04003906,-0.4003906
1858,-0.0625,0,0,-0.02294922,0,0.9321289,-0.2270508,-0.04980469,-0.402832
1860,-0.4375,-0.1875,0.125,-0.03466797,0,0.9672852,-0.2270508,-0.04980469,-0.402832
1862,-0.3125,-0.125,0,-0.03466797,-0.003417969,0.9750977,-0.2270508,-0.04980469,-0.402832
1864,-0.1875,0,0,-0.02294922,0,0.9711914,-0.2294922,-0.04736328,-0.3901367
1866,-0.3125,0.1875,0,0,-0.007324219,0.9790039,-0.2294922,-0.04736328,-0.3901367
1868,-0.0625,-0.125,0.1875,-0.03076172,0,0.9711914,-0.2294922,-0.04736328,-0.3901367
1870,-0.4375,0.25,0,-0.03857422,-0.003417969,0.9672852,-0.2294922,-0.04736328,-0.3901367
1872,-0.125,-0.125,0,-0.03076172,0.03076172,0.9243164,-0.2294922,-0.04736328,-0.3901367
1874,-0.25,-0.125,0,-0.03076172,0.007324219,0.9516602,-0.2294922,-0.04736328,-0.3901367
1876,-0.0625,0.0625,-0.125,-0.02685547,0.007324219,0.9360352,-0.2294922,-0.04736328,-0.3901367
1879,-0.25,0,0.1875,-0.03466797,0.01123047,0.9711914,-0.2392578,-0.04492188,-0.4003906
1881,-0.125,0,-0.0625,-0.02294922,0,0.9790039,-0.2392578,-0.04492188,-0.4003906
1883,-0.25,-0.125,-0.0625,-0.01904297,0.003417969,0.9750977,-0.2392578,-0.04492188,-0.4003906
1885,-0.0625,0.1875,-0.0625,0,0.01123047,0.9829102,-0.2294922,-0.03759766,-0.3925781
1887,-0.25,-0.125,0.1875,-0.02685547,0.003417969,0.9672852,-0.2294922,-0.03759766,-0.3925781
1889,-0.1875,-0.125,-0.0625,-0.03857422,0.01513672,0.9711914,-0.2294922,-0.03759766,-0.3925781
1891,-0.1875,0,0.1875,-0.01513672,0.02294922,0.9438477,-0.2294922,-0.03759766,-0.3925781
1893,-0.0625,0.0625,-0.125,-0.01904297,0,0.9868164,-0.2294922,-0.03759766,-0.3925781
1895,-0.125,0,-0.0625,-0.02294922,-0.007324219,0.9868164,-0.2294922,-0.03759766,-0.3925781
1897,-0.1875,0,-0.0625,-0.03076172,0.007324219,0.9633789,-0.2294922,-0.03759766,-0.3925781
1899,-0.125,0,0.125,-0.01123047,-0.01513672,0.9399414,-0.2294922,-0.04248047,-0.4003906
1901,-0.25,0,-0.125,-0.007324219,0.01123047,0.9477539,-0.2294922,-0.04248047,-0.4003906
1903,-0.0625,-0.1875,0.0625,-0.03466797,0.01123047,0.9672852,-0.2294922,-0.04248047,-0.4003906
1905,-0.25,0,-0.0625,-0.01513672,0.003417969,0.9985352,-0.2270508,-0.03759766,-0.3925781
1907,-0.25,0,0,-0.03857422,-0.007324219,0.9907227,-0.2270508,-0.03759766,-0.3925781
1909,-0.1875,-0.1875,0.0625,-0.01123047,0.007324219,0.9711914,-0.2270508,-0.03759766,-0.3925781
1911,-0.4375,0.1875,-0.125,-0.03076172,0,0.9750977,-0.2270508,-0.03759766,-0.3925781
1913,-0.0625,0,-0.0625,-0.01123047,-0.007324219,0.9946289,-0.234375,-0.03271484,-0.3901367
1915,-0.1875,-0.125,0.25,-0.03466797,0.003417969,0.9477539,-0.234375,-0.03271484,-0.3901367
1917,-0.25,0.125,0,-0.02294922,0.007324219,0.9555664,-0.234375,-0.03271484,-0.3901367
1919,-0.25,-0.1875,-0.0625,-0.02685547,0.003417969,0.9672852,-0.2294922,-0.04248047,-0.3876953
1921,-0.0625,0,-0.0625,-0.03466797,0.01123047,0.9555664,-0.2294922,-0.04248047,-0.3876953
1923,-0.25,-0.125,0,-0.04248047,0.01904297,0.9750977,-0.2294922,-0.04248047,-0.3876953
1925,-0.25,0,0.0625,-0.01513672,0.01123047,0.9907227,-0.2319336,-0.03759766,-0.3979492
1927,-0.25,0,-0.0625,-0.03076172,0.01904297,0.9868164,-0.2319336,-0.03759766,-0.3979492
1929,-0.25,0.125,0,-0.03076172,0,0.9672852,-0.2319336,-0.03759766,-0.3979492
1931,-0.1875,0,0,-0.03857422,0.01123047,0.9750977,-0.2319336,-0.03759766,-0.3979492
1933,-0.1875,-0.125,0,-0.02685547,0.01513672,0.9555664,-0.2246094,-0.03515625,-0.3876953
1935,-0.3125,-0.0625,0,-0.03076172,0.007324219,0.9516602,-0.2246094,-0.03515625,-0.3876953
1937,-0.125,0,0,-0.02294922,0.01123047,0.9750977,-0.2246094,-0.03515625,-0.3876953
1939,0,0,0,-0.02685547,0.01904297,0.9672852,-0.222168,-0.04003906,-0.3925781
1941,-0.1875,0,-0.125,-0.03076172,0,0.9516602,-0.222168,-0.04003906,-0.3925781
1943,-0.25,0,0.0625,-0.02294922,0.007324219,0.9711914,-0.222168,-0.04003906,-0.3925781
1945,-0.1875,0.0625,0,-0.03076172,0.007324219,0.9594727,-0.222168,-0.04003906,-0.3925781
1947,-0.25,0,-0.0625,-0.03076172,0.01513672,0.9790039,-0.222168,-0.04003906,-0.3925781
1949,-0.125,-0.1875,-0.0625,-0.03076172,0.01513672,0.9750977,-0.222168,-0.04003906,-0.3925781
1951,-0.4375,-0.375,0.125,-0.03076172,0.01513672,0.9555664,-0.222168,-0.04003906,-0.3925781
1953,-0.25,-0.125,0,-0.03076172,0.01123047,0.9633789,-0.2294922,-0.04003906,-0.3925781
1955,-0.1875,-0.125,-0.0625,-0.02294922,0.003417969,0.9711914,-0.2294922,-0.04003906,-0.3925781
1957,0,0.0625,0,-0.03076172,0.003417969,0.9672852,-0.2294922,-0.04003906,-0.3925781
1959,-0.25,-0.125,-0.0625,-0.01513672,0.01904297,0.9750977,-0.2246094,-0.04003906,-0.3901367
1961,-0.4375,0.125,0.125,-0.02685547,-0.01123047,0.9516602,-0.2246094,-0.04003906,-0.3901367
1963,-0.125,0,-0.1875,-0.02294922,-0.007324219,0.9750977,-0.2246094,-0.04003906,-0.3901367
1965,-1.25,-2.1875,0.1875,-0.09716797,0.003417969,0.6240234,-0.2246094,-0.04003906,-0.3901367
1967,-0.5,-4.8125,0.375,-0.06591797,-0.1010742,0.9750977,-0.2246094,-0.04003906,-0.3901367
1969,-0.8125,-2.1875,0.1875,0.08154297,0.01123047,1.107422,-0.2246094,-0.04003906,-0.3901367
1971,0,0.3125,0.0625,-0.01904297,0.05419922,1.138672,-0.2246094,-0.04003906,-0.3901367
1973,-0.6875,1.5,-0.1875,-0.003417969,-0.02685547,1.126953,-0.234375,-0.03515625,-0.3955078
1975,-0.1875,2.1875,-0.125,-0.007324219,0,1.041016,-0.234375,-0.03515625,-0.3955078
1977,0.5,1.625,0.1875,-0.06591797,0.05029297,0.8813477,-0.234375,-0.03515625,-0.3955078
1979,0.125,0.625,0.0625,-0.06201172,0.02294922,0.8774414,-0.2319336,-0.04003906,-0.3925781
1981,-0.25,0,0,-0.05029297,0.02294922,0.9321289,-0.2319336,-0.04003906,-0.3925781
1983,-0.3125,-0.25,-0.1875,-0.02685547,0.02685547,0.8461914,-0.2319336,-0.04003906,-0.3925781
1985,-0.0625,-0.3125,-0.0625,-0.01513672,0,0.8618164,-0.2319336,-0.04003906,-0.3925781
1987,0.0625,-0.4375,-0.125,-0.01123047,-0.02294922,0.9790039,-0.2319336,-0.04003906,-0.3955078
1989,0.25,-0.1875,0.125,-0.003417969,0.007324219,0.9907227,-0.2319336,-0.04003906,-0.3955078
1991,-0.25,0.1875,0.0625,-0.02685547,0.02685547,1.009766,-0.2319336,-0.04003906,-0.3955078
1993,-0.5625,0.5,0.125,-0.03466797,0.01123047,0.9829102,-0.2148438,-0.03027344,-0.3901367
1995,-0.3125,0.1875,0,-0.05029297,0.01123047,0.9204102,-0.2148438,-0.03027344,-0.3901367
1997,-0.1875,-0.125,0.0625,-0.04638672,0.04248047,0.9399414,-0.2148438,-0.03027344,-0.3901367
1999,-0.25,-0.3125,0,-0.03076172,0.01513672,0.9516602,-0.2246094,-0.03759766,-0.3925781
2001,-0.1875,-0.25,-0.3125,-0.03076172,0.02294922,0.9399414,-0.2246094,-0.03759766,-0.3925781
2003,-0.375,-0.25,0,0,0,0.9711914,-0.2246094,-0.03759766,-0.3925781
2005,-0.25,-0.1875,0.0625,0.007324219,-0.003417969,0.9360352,-0.2246094,-0.03759766,-0.3925781
2008,-0.25,0.125,0.0625,-0.007324219,-0.003417969,0.9438477,-0.2368164,-0.04736328,-0.3901367
2010,-0.4375,0.125,0.3125,-0.01513672,0,0.9438477,-0.2368164,-0.04736328,-0.3901367
2012,-0.125,0.25,0.0625,-0.05419922,0.01513672,0.9204102,-0.2368164,-0.04736328,-0.3901367
2014,0,0.0625,0.0625,-0.03076172,0.04638672,0.9321289,-0.2246094,-0.03759766,-0.3876953
2016,-0.0625,0,-0.1875,-0.03076172,0.007324219,0.9399414,-0.2246094,-0.03759766,-0.3876953
2018,-0.3125,-0.4375,0.0625,-0.01513672,0.01123047,1.001953,-0.2246094,-0.03759766,-0.3876953
2020,-0.1875,-0.25,-0.0625,-0.01513672,0,1.037109,-0.2270508,-0.02783203,-0.3876953
2022,-0.25,0,0,-0.01904297,0.003417969,1.029297,-0.2270508,-0.02783203,-0.3876953
2024,-0.1875,0.125,0.125,0,-0.02294922,0.9555664,-0.2270508,-0.02783203,-0.3876953
2026,-0.125,0.375,0.0625,-0.03857422,-0.007324219,0.9360352,-0.2270508,-0.02783203,-0.3876953
2028,-0.0625,0.125,0,-0.05810547,-0.003417969,0.9008789,-0.2319336,-0.03759766,-0.3901367
2030,-0.125,0.0625,0.0625,-0.02685547,0.01513672,0.9086914,-0.2319336,-0.03759766,-0.3901367
2032,0.0625,-0.25,0.0625,-0.05029297,0.02294922,0.9282227,-0.2319336,-0.03759766,-0.3901367
2034,-0.125,-0.125,-0.0625,-0.03076172,0.01123047,0.9790039,-0.2246094,-0.03515625,-0.3798828
2036,-0.4375,0,-0.125,-0.007324219,0.007324219,1.021484,-0.2246094,-0.03515625,-0.3798828
2038,-0.375,0,0,-0.03076172,0,1.009766,-0.2246094,-0.03515625,-0.3798828
2040,-0.4375,0,0.0625,-0.02294922,0,0.9829102,-0.2246094,-0.03515625,-0.3798828
2042,-0.375,-0.0625,0,-0.01513672,0.007324219,0.9477539,-0.2246094,-0.03515625,-0.3798828
2044,-0.25,0,0,-0.01904297,0.003417969,0.9399414,-0.2246094,-0.03515625,-0.3798828
2046,0,0.0625,0,-0.02685547,0.007324219,0.9282227,-0.2246094,-0.03515625,-0.3798828
2048,-0.1875,-0.3125,0,-0.02685547,0.01513672,0.9243164,-0.234375,-0.03027344,-0.3852539
2050,-0.125,-0.125,-0.1875,-0.02685547,0.01904297,0.9399414,-0.234375,-0.03027344,-0.3852539
2052,-0.1875,0,-0.0625,-0.01904297,-0.003417969,0.9790039,-0.234375,-0.03027344,-0.3852539
2054,-0.125,0,0.0625,-0.02294922,0.01513672,0.9829102,-0.222168,-0.04003906,-0.3925781
2056,-0.25,0.1875,-0.0625,-0.01904297,0.02685547,0.9868164,-0.222168,-0.04003906,-0.3925781
2058,-0.1875,0,0.125,-0.02685547,0.003417969,0.9516602,-0.222168,-0.04003906,-0.3925781
2060,-0.125,0.0625,0.25,-0.03076172,0.02685547,0.9711914,-0.222168,-0.04003906,-0.3925781
2062,0,0,0,-0.03466797,0,0.9516602,-0.222168,-0.04003906,-0.3925781
2064,-0.125,0,-0.0625,-0.02294922,0,0.9750977,-0.222168,-0.04003906,-0.3925781
2066,-0.1875,-0.125,0.0625,-0.02294922,0,0.9516602,-0.222168,-0.04003906,-0.3925781
2068,-0.1875,0,0.0625,-0.02294922,-0.01123047,0.9555664,-0.2270508,-0.04248047,-0.3925781
2070,-0.125,0.125,-0.125,-0.02685547,0.007324219,0.9750977,-0.2270508,-0.04248047,-0.3925781
2072,-0.25,0.125,0.0625,-0.03076172,0.003417969,0.9399414,-0.2270508,-0.04248047,-0.3925781
2074,-0.1875,0.0625,0,-0.02685547,-0.007324219,0.9516602,-0.2246094,-0.03515625,-0.3901367
2076,-0.625,0,0.0625,-0.02294922,0.01123047,0.9399414,-0.2246094,-0.03515625,-0.3901367
2078,-0.1875,-0.0625,-0.1875,-0.02685547,0,0.9594727,-0.2246094,-0.03515625,-0.3901367
2080,-0.1875,-0.25,-0.3125,-0.02294922,0.01904297,0.9750977,-0.2246094,-0.03515625,-0.3901367
2082,-0.3125,-0.1875,0.125,-0.03076172,0.01513672,0.9985352,-0.2319336,-0.04248047,-0.3925781
2084,-0.25,0,0.0625,-0.003417969,0.003417969,0.9946289,-0.2319336,-0.04248047,-0.3925781
2086,-0.3125,0.125,0,-0.01904297,0,0.9711914,-0.2319336,-0.04248047,-0.3925781
2088,-0.25,0.1875,0.0625,-0.02294922,0.01513672,0.9516602,-0.2294922,-0.04736328,-0.3876953
2090,-0.1875,0.125,0,-0.007324219,0.01123047,0.9321289,-0.2294922,-0.04736328,-0.3876953
2092,-0.25,0.125,-0.0625,-0.03466797,0.02294922,0.9438477,-0.2294922,-0.04736328,-0.3876953
2094,-0.1875,0,0.0625,-0.02294922,0.01904297,0.9360352,-0.234375,-0.04248047,-0.3876953
2096,-0.125,0,-0.0625,-0.04248047,0.01123047,0.9594727,-0.234375,-0.04248047,-0.3876953
2098,-0.125,0,0.0625,-0.03857422,0.01123047,0.9907227,-0.234375,-0.04248047,-0.3876953
2100,-0.125,0,-0.0625,-0.01513672,0.003417969,0.9829102,-0.234375,-0.04248047,-0.3876953
2102,-0.25,0.125,0,-0.02685547,0.003417969,0.9868164,-0.2246094,-0.03271484,-0.3876953
2104,-0.1875,0,0.0625,-0.03076172,0,0.9829102,-0.2246094,-0.03271484,-0.3876953
2106,-0.1875,0,-0.1875,-0.02294922,0.003417969,0.9321289,-0.2246094,-0.03271484,-0.3876953
2108,-0.1875,0,0.0625,-0.03076172,-0.003417969,0.9321289,-0.2246094,-0.04492188,-0.3955078
2110,-0.1875,0.125,0,-0.03076172,0.01123047,0.9360352,-0.2246094,-0.04492188,-0.3955078
2112,-0.0625,-0.125,-0.125,-0.02294922,0.007324219,0.9672852,-0.2246094,-0.04492188,-0.3955078
2114,-0.1875,0,-0.0625,-0.01904297,0,0.9829102,-0.2246094,-0.04248047,-0.3901367
2116,-0.1875,-0.1875,0.125,-0.02294922,-0.007324219,0.9633789,-0.2246094,-0.04248047,-0.3901367
2118,-0.125,0,0.125,-0.03466797,0.02294922,0.9946289,-0.2246094,-0.04248047,-0.3901367
2120,-0.125,0,0,-0.03076172,0.02685547,0.9711914,-0.2246094,-0.04248047,-0.3901367
2122,-0.1875,-0.0625,0,-0.03076172,0.02685547,0.9672852,-0.2294922,-0.03515625,-0.3876953
2124,-0.3125,-0.1875,-0.125,-0.01904297,0.03076172,0.9594727,-0.2294922,-0.03515625,-0.3876953
2126,-0.375,-0.125,0,-0.03076172,0.01904297,0.9555664,-0.2294922,-0.03515625,-0.3876953
2128,-0.25,0.0625,-0.0625,-0.02294922,0.01513672,0.9516602,-0.2246094,-0.04248047,-0.3876953
2130,-0.25,-0.125,-0.125,-0.01904297,-0.003417969,0.9672852,-0.2246094,-0.04248047,-0.3876953
2132,-0.3125,0.0625,0,-0.04638672,0.01123047,0.9750977,-0.2246094,-0.04248047,-0.3876953
2134,-0.1875,0.125,0.0625,-0.01513672,0,0.9321289,-0.2246094,-0.04248047,-0.3876953
2138,-0.1875,0,-0.125,-0.02294922,0.01513672,0.9516602,-0.2246094,-0.04248047,-0.3876953
2140,-0.25,0,0.0625,-0.02294922,0.01513672,0.9985352,-0.2246094,-0.04248047,-0.3876953
2142,-0.4375,0,0.0625,-0.03076172,-0.003417969,0.9750977,-0.2246094,-0.04248047,-0.3876953
2144,-0.4375,0,0.125,-0.01513672,0.003417969,0.9907227,-0.2319336,-0.03759766,-0.3901367
2146,-0.25,0.0625,0,-0.03466797,-0.007324219,0.9790039,-0.2319336,-0.03759766,-0.3901367
2148,-0.125,0.0625,0.0625,-0.01513672,-0.007324219,0.9790039,-0.2319336,-0.03759766,-0.3901367
2150,-0.1875,-0.0625,-0.0625,-0.03857422,-0.007324219,0.9477539,-0.2270508,-0.03027344,-0.3876953
2152,-0.25,-0.125,0,-0.03076172,-0.003417969,0.9516602,-0.2270508,-0.03027344,-0.3876953
2154,-0.1875,0,0.125,-0.03466797,-0.007324219,0.9321289,-0.2270508,-0.03027344,-0.3876953
2156,-0.3125,0,0,-0.01123047,-0.007324219,0.9438477,-0.2270508,-0.03027344,-0.3876953
2158,-0.0625,0,-0.1875,-0.03076172,0.01513672,0.9790039,-0.2270508,-0.03027344,-0.3876953
2160,0,-0.1875,0.0625,-0.02294922,0.01513672,0.9829102,-0.2270508,-0.03027344,-0.3876953
2162,-0.25,0,-0.0625,-0.03076172,0,0.9946289,-0.2270508,-0.03027344,-0.3876953
2164,-0.25,0,-0.125,-0.02685547,-0.003417969,0.9790039,-0.2270508,-0.03515625,-0.3955078
2166,-0.125,-0.125,0,-0.02685547,0.01513672,0.9711914,-0.2270508,-0.03515625,-0.3955078
2168,-0.0625,0,-0.0625,-0.01513672,-0.01123047,0.9555664,-0.2270508,-0.03515625,-0.3955078
2170,-0.0625,0,0,-0.03076172,0.01904297,0.9399414,-0.2246094,-0.04736328,-0.3876953
2172,-0.3125,-0.25,0.25,-0.02685547,0.007324219,0.9438477,-0.2246094,-0.04736328,-0.3876953
2174,-0.1875,0.125,0.1875,-0.01123047,0.01123047,0.9594727,-0.2246094,-0.04736328,-0.3876953
2176,-0.125,0.125,0.1875,-0.007324219,0.007324219,0.9594727,-0.2246094,-0.04736328,-0.3876953
2178,-0.25,0,-0.1875,-0.02294922,0.007324219,0.9555664,-0.2368164,-0.04003906,-0.3925781
2180,-0.125,0.25,0,-0.02294922,0.01123047,0.9750977,-0.2368164,-0.04003906,-0.3925781
2182,-0.25,0,0.125,-0.02685547,0.01123047,0.9672852,-0.2368164,-0.04003906,-0.3925781
2184,-0.125,-0.1875,0.0625,-0.03076172,0.007324219,0.9672852,-0.222168,-0.04003906,-0.3876953
2186,-0.1875,0,-0.125,-0.03076172,0.003417969,0.9750977,-0.222168,-0.04003906,-0.3876953
2188,-0.1875,-0.0625,0,-0.02294922,0.01513672,0.9516602,-0.222168,-0.04003906,-0.3876953
2190,-0.375,0,-0.0625,-0.003417969,0.003417969,0.9672852,-0.2270508,-0.03515625,-0.3979492
2192,-0.3125,-0.1875,-0.0625,-0.02685547,0.007324219,0.9516602,-0.2270508,-0.03515625,-0.3979492
2194,-0.0625,0.1875,0,0.003417969,-0.01123047,0.9750977,-0.2270508,-0.03515625,-0.3979492
2196,-0.1875,0.125,0.0625,-0.01904297,0.003417969,0.9672852,-0.2270508,-0.03515625,-0.3979492
2198,-0.1875,0,0.0625,-0.01513672,0.01123047,0.9438477,-0.2294922,-0.03515625,-0.3876953
2200,-0.25,0.0625,0.0625,-0.01513672,0.007324219,0.9321289,-0.2294922,-0.03515625,-0.3876953
2202,-0.25,0.1875,-0.0625,-0.03076172,0.01123047,0.9829102,-0.2294922,-0.03515625,-0.3876953
2204,-0.25,0.125,0.0625,-0.02685547,0.003417969,0.9633789,-0.222168,-0.04736328,-0.4003906
2206,-0.1875,0,-0.0625,-0.01904297,0.007324219,0.9711914,-0.222168,-0.04736328,-0.4003906
2208,-0.125,0,0.0625,-0.01904297,-0.003417969,0.9477539,-0.222168,-0.04736328,-0.4003906
2210,-0.4375,0,0,-0.01513672,0.01904297,0.9555664,-0.2319336,-0.03027344,-0.3852539
2212,-0.1875,0,0.0625,-0.02294922,0.01513672,0.9672852,-0.2319336,-0.03027344,-0.3852539
2214,-0.5,-0.375,0.25,-0.03466797,0.01123047,0.8891602,-0.2319336,-0.03027344,-0.3852539
2216,1.375,0.6875,-0.1875,-0.1557617,0.01123047,0.7602539,-0.2319336,-0.03027344,-0.3852539
2218,1.5,-3.6875,0.125,-0.1479492,-0.2651367,0.9477539,-0.222168,-0.04003906,-0.4003906
2220,-1,-0.375,-0.0625,0.1088867,0.01904297,1.333496,-0.222168,-0.04003906,-0.4003906
2222,-0.0625,0.5625,-0.3125,0.09716797,0.08544922,1.240234,-0.222168,-0.04003906,-0.4003906
2224,-1.3125,2.6875,0.25,-0.01513672,0.02685547,1.068359,-0.2319336,-0.03759766,-0.3925781
2226,-0.4375,1.8125,0.0625,-0.05029297,-0.01513672,0.8110352,-0.2319336,-0.03759766,-0.3925781
2228,-0.4375,0.75,0,-0.07373047,0.01904297,0.8696289,-0.2319336,-0.03759766,-0.3925781
2230,0.125,-0.875,-0.125,-0.06591797,0.01904297,0.8540039,-0.2319336,-0.03759766,-0.3925781
2232,-1.4375,-0.1875,-0.125,-0.06201172,-0.007324219,0.9047852,-0.2319336,-0.03759766,-0.3925781
2234,-0.0625,-1.375,-0.3125,-0.03466797,-0.007324219,0.8461914,-0.2319336,-0.03759766,-0.3925781
2236,-0.125,-0.625,-0.375,-0.02294922,-0.01513672,0.8852539,-0.2319336,-0.03759766,-0.3925781
2238,0.4375,-0.5625,0,0,-0.01513672,1.060547,-0.2270508,-0.04492188,-0.3925781
2240,0,0.6875,0.1875,0.01513672,0,1.037109,-0.2270508,-0.04492188,-0.3925781
2242,-0.1875,0.4375,0.0625,-0.03076172,0.01904297,1.009766,-0.2270508,-0.04492188,-0.3925781
2244,-0.5625,0.625,0.25,-0.05810547,0.01513672,0.9594727,-0.2148438,-0.03759766,-0.3901367
2246,0.0625,0.125,0,-0.04248047,0.03857422,0.9282227,-0.2148438,-0.03759766,-0.3901367
2248,-0.25,-0.125,-0.0625,-0.03076172,0.03076172,0.9946289,-0.2148438,-0.03759766,-0.3901367
2250,-0.0625,-0.1875,-0.0625,-0.04248047,0.007324219,1.013672,-0.2148438,-0.03759766,-0.3901367
2252,-0.3125,-0.25,-0.25,-0.01123047,-0.01513672,0.9672852,-0.2294922,-0.02539063,-0.3901367
2254,-0.125,0.0625,-0.125,0.01513672,-0.007324219,0.9829102,-0.2294922,-0.02539063,-0.3901367
2256,-0.125,0.125,0.1875,-0.003417969,0.01904297,0.9750977,-0.2294922,-0.02539063,-0.3901367
2258,-0.25,0.1875,0.125,0.007324219,-0.01513672,0.9516602,-0.2270508,-0.03027344,-0.3925781
2260,-0.1875,0.5625,0.1875,-0.02685547,0.01513672,0.9321289,-0.2270508,-0.03027344,-0.3925781
2262,-0.0625,0.5625,0.1875,-0.03076172,0.02685547,0.9204102,-0.2270508,-0.03027344,-0.3925781
2264,-0.1875,0.125,0,-0.03857422,0.02685547,0.9516602,-0.2270508,-0.04492188,-0.3901367
2267,-0.0625,-0.25,0.125,-0.02685547,0.01904297,1.021484,-0.2270508,-0.04492188,-0.3901367
2269,-0.4375,-0.25,0,0,-0.01123047,1.013672,-0.2270508,-0.04492188,-0.3901367
2271,-0.3125,-0.25,-0.1875,-0.01513672,-0.01123047,1.009766,-0.2270508,-0.04492188,-0.3901367
2273,-0.25,0,0,-0.01123047,-0.01513672,1.013672,-0.222168,-0.04248047,-0.3955078
2275,-0.5625,0.375,0.1875,-0.007324219,-0.03076172,0.9907227,-0.222168,-0.04248047,-0.3955078
2277,-0.1875,0.3125,0.1875,-0.03857422,-0.01513672,0.8852539,-0.222168,-0.04248047,-0.3955078
2279,-0.1875,0.1875,0,-0.06982422,0.003417969,0.8657227,-0.2270508,-0.02783203,-0.3955078
2281,0,0.0625,0,-0.05029297,0.01904297,0.8891602,-0.2270508,-0.02783203,-0.3955078
2283,-0.125,-0.1875,0,-0.03076172,0.02685547,0.9750977,-0.2270508,-0.02783203,-0.3955078
2285,0.0625,-0.3125,-0.125,-0.04638672,0.007324219,1.001953,-0.2319336,-0.04003906,-0.3823242
2287,-0.1875,-0.1875,0,-0.03076172,0.01123047,1.021484,-0.2319336,-0.04003906,-0.3823242
2289,-0.1875,0.125,0,-0.01123047,0.01513672,1.033203,-0.2319336,-0.04003906,-0.3823242
2291,-0.5625,-0.125,-0.125,-0.01123047,0.01904297,0.9868164,-0.2319336,-0.04003906,-0.3823242
2293,-0.5625,0.0625,0.0625,-0.01513672,0.007324219,0.9477539,-0.2246094,-0.03759766,-0.3925781
2295,-0.3125,0.0625,0.125,-0.03076172,0.02685547,0.9204102,-0.2246094,-0.03759766,-0.3925781
2297,-0.125,-0.125,-0.0625,-0.03076172,0.01513672,0.9360352,-0.2246094,-0.03759766,-0.3925781
2299,-0.125,0.125,-0.0625,-0.03857422,0.01123047,0.9204102,-0.2319336,-0.03271484,-0.3955078
2301,-0.125,0.0625,0,-0.01513672,-0.003417969,0.9711914,-0.2319336,-0.03271484,-0.3955078
2303,-0.1875,0.125,0.0625,-0.01123047,0.01904297,0.9829102,-0.2319336,-0.03271484,-0.3955078
2305,-0.25,-0.125,0.125,-0.02685547,0,0.9790039,-0.2319336,-0.03271484,-0.3955078
2307,-0.375,0,0,-0.03076172,0.007324219,0.9750977,-0.2319336,-0.03271484,-0.3955078
2309,-0.1875,0.125,0.0625,-0.02294922,0.007324219,0.9907227,-0.2319336,-0.03271484,-0.3955078
2311,-0.25,0.0625,0.125,-0.02685547,0.01123047,0.9672852,-0.2319336,-0.03271484,-0.3955078
2313,-0.3125,-0.0625,0.0625,-0.02685547,0.01513672,0.9711914,-0.2294922,-0.03759766,-0.3798828
2315,-0.1875,-0.1875,0,-0.02685547,0.003417969,0.9555664,-0.2294922,-0.03759766,-0.3798828
2317,-0.375,-0.25,-0.125,-0.03857422,-0.01513672,0.9750977,-0.2294922,-0.03759766,-0.3798828
2319,-0.125,0.0625,-0.125,-0.01513672,-0.003417969,0.9672852,-0.222168,-0.03759766,-0.3979492
2321,-0.1875,0.3125,0.0625,-0.05419922,0.003417969,0.9555664,-0.222168,-0.03759766,-0.3979492
2323,-0.125,0.0625,-0.125,-0.02685547,0,0.9516602,-0.222168,-0.03759766,-0.3979492
2325,-0.125,0.125,-0.0625,-0.02685547,0.007324219,0.9711914,-0.222168,-0.03759766,-0.3979492
2327,-0.1875,-0.1875,-0.0625,-0.02685547,0.01513672,0.9672852,-0.222168,-0.03759766,-0.3979492
2329,0,-0.25,0.125,-0.01904297,0.01123047,0.9633789,-0.222168,-0.03759766,-0.3979492
2331,-0.375,0,-0.0625,-0.02685547,0.003417969,0.9907227,-0.222168,-0.03759766,-0.3979492
2333,-0.125,-0.125,-0.125,-0.01123047,0.007324219,1.001953,-0.2246094,-0.03027344,-0.3979492
2335,-0.1875,0,0.125,-0.04248047,0.01904297,0.9750977,-0.2246094,-0.03027344,-0.3979492
2337,-0.25,0.0625,0.0625,-0.003417969,0.03076172,0.9555664,-0.2246094,-0.03027344,-0.3979492
2339,0,0.125,0.125,-0.04638672,0.01904297,0.9399414,-0.2246094,-0.04248047,-0.3852539
2341,-0.0625,0.125,0.125,-0.02294922,0.007324219,0.9516602,-0.2246094,-0.04248047,-0.3852539
2343,-0.1875,0,-0.125,-0.02685547,0.01904297,0.9516602,-0.2246094,-0.04248047,-0.3852539
2345,-0.0625,-0.125,0,-0.04248047,0.003417969,0.9672852,-0.2246094,-0.04248047,-0.3852539
2347,-0.1875,0,-0.125,-0.02685547,0,0.9750977,-0.2148438,-0.04248047,-0.3925781
2349,0,0,0.125,-0.02294922,0.01904297,0.9711914,-0.2148438,-0.04248047,-0.3925781
2351,-0.25,0.125,0.125,-0.02685547,0.01123047,0.9907227,-0.2148438,-0.04248047,-0.3925781
2353,-0.4375,-0.1875,0,-0.03076172,-0.007324219,0.9672852,-0.2368164,-0.04003906,-0.3876953
2355,-0.4375,-0.0625,0.125,-0.03076172,0,0.9633789,-0.2368164,-0.04003906,-0.3876953
2357,-0.0625,0.0625,0.0625,-0.04638672,0.01904297,0.9672852,-0.2368164,-0.04003906,-0.3876953
2359,-0.4375,0,-0.1875,-0.03076172,-0.007324219,0.9555664,-0.222168,-0.04003906,-0.3901367
2361,-0.125,-0.0625,-0.1875,-0.02294922,0,0.9829102,-0.222168,-0.04003906,-0.3901367
2363,-0.0625,0.125,-0.25,-0.02685547,0.01904297,0.9633789,-0.222168,-0.04003906,-0.3901367
2365,-0.125,0,0.0625,-0.01513672,-0.01123047,0.9868164,-0.222168,-0.04003906,-0.3901367
2367,-0.1875,-0.125,0.0625,-0.02294922,0.003417969,0.9711914,-0.2294922,-0.04003906,-0.3925781
2369,-0.0625,0,0.0625,-0.01123047,0.02294922,0.9594727,-0.2294922,-0.04003906,-0.3925781
2371,-0.375,0.0625,0.0625,-0.02685547,0.01123047,0.9516602,-0.2294922,-0.04003906,-0.3925781
2373,-0.1875,0,0,-0.03076172,0.01123047,0.9711914,-0.2319336,-0.04248047,-0.3901367
2375,-0.25,-0.125,-0.125,-0.01123047,0.02685547,0.9750977,-0.2319336,-0.04248047,-0.3901367
2377,-0.0625,0.0625,0.1875,0,0.02685547,0.9672852,-0.2319336,-0.04248047,-0.3901367
2379,-0.1875,0,-0.125,-0.007324219,0,0.9477539,-0.2294922,-0.04003906,-0.3876953
2381,-0.0625,0,0.0625,-0.01904297,0.01123047,0.9672852,-0.2294922,-0.04003906,-0.3876953
2383,-0.4375,0,0,-0.01123047,0,0.9477539,-0.2294922,-0.04003906,-0.3876953
2385,-0.0625,0.125,0.125,-0.02294922,0.01513672,0.9516602,-0.2294922,-0.04003906,-0.3876953
2387,-0.25,-0.125,0.125,-0.02294922,0.01513672,0.9555664,-0.222168,-0.03271484,-0.3852539
2389,-0.0625,-0.0625,-0.0625,-0.02294922,0.01904297,0.9516602,-0.222168,-0.03271484,-0.3852539
2391,-0.25,0.0625,0,-0.02685547,-0.003417969,1.005859,-0.222168,-0.03271484,-0.3852539
2393,-0.125,0.0625,-0.0625,-0.02685547,0.02294922,0.9750977,-0.2270508,-0.03027344,-0.3901367
2396,-0.3125,0,-0.0625,-0.01513672,0.003417969,0.9985352,-0.2270508,-0.03027344,-0.3901367
2398,-0.1875,0,0,-0.01904297,-0.01513672,0.9750977,-0.2270508,-0.03027344,-0.3901367
2400,-0.125,0,0.125,-0.02294922,-0.01123047,0.9477539,-0.2270508,-0.03027344,-0.3901367
2402,-0.1875,-0.25,0.125,-0.01513672,0.02685547,0.9516602,-0.2270508,-0.03027344,-0.3901367
2404,0,0,0,-0.03466797,0.01123047,0.9282227,-0.2270508,-0.03027344,-0.3901367
2406,-0.1875,0,0.0625,-0.03466797,0.01904297,0.9672852,-0.2270508,-0.03027344,-0.3901367
2408,-0.1875,-0.1875,0.0625,-0.02294922,0.01513672,0.9555664,-0.2270508,-0.04003906,-0.3876953
2410,-0.25,0,0.125,-0.03466797,0.01904297,0.9555664,-0.2270508,-0.04003906,-0.3876953
2412,-0.375,-0.0625,-0.125,-0.03857422,0.007324219,0.9946289,-0.2270508,-0.04003906,-0.3876953
2414,-0.3125,0,0.0625,-0.03076172,0.01513672,0.9750977,-0.2319336,-0.03515625,-0.3925781
2416,-0.1875,0,-0.0625,-0.02294922,0.01123047,0.9672852,-0.2319336,-0.03515625,-0.3925781
2418,-0.1875,0.125,0.3125,-0.01123047,0.01513672,0.9243164,-0.2319336,-0.03515625,-0.3925781
2420,-0.1875,-0.125,0,-0.03076172,0.003417969,0.9477539,-0.2319336,-0.03515625,-0.3925781
2422,-0.0625,-0.125,0.1875,-0.03076172,0.003417969,0.9477539,-0.2319336,-0.03515625,-0.3925781
2424,-0.3125,0,0.125,-0.03076172,0.01123047,0.9555664,-0.2319336,-0.03515625,-0.3925781
2426,-0.1875,0.0625,0.3125,-0.03076172,0.01123047,0.9711914,-0.2319336,-0.03515625,-0.3925781
2428,-0.0625,0,-0.0625,-0.03857422,-0.01123047,0.9633789,-0.2246094,-0.04003906,-0.4003906
2430,-0.125,0,0.125,-0.03857422,0,0.9633789,-0.2246094,-0.04003906,-0.4003906
2432,-0.4375,0,-0.0625,-0.03076172,0.01513672,0.9711914,-0.2246094,-0.04003906,-0.4003906
2434,-0.125,-0.1875,0,-0.03076172,-0.01513672,0.9829102,-0.2246094,-0.03027344,-0.3901367
2436,-0.375,-0.125,0.125,-0.03076172,0,0.9829102,-0.2246094,-0.03027344,-0.3901367
2438,-0.25,-0.25,-0.0625,-0.02294922,0.007324219,0.9790039,-0.2246094,-0.03027344,-0.3901367
2440,-0.0625,0.0625,0.0625,-0.03076172,0.01123047,0.9750977,-0.2246094,-0.03027344,-0.3901367
2442,-0.25,-0.0625,0,-0.02685547,-0.003417969,0.9750977,-0.2270508,-0.04003906,-0.3852539
2444,-0.1875,0.125,0,-0.03857422,-0.003417969,0.9594727,-0.2270508,-0.04003906,-0.3852539
2446,-0.375,0,-0.125,-0.03076172,0.007324219,0.9594727,-0.2270508,-0.04003906,-0.3852539
2448,-0.125,-0.125,0,-0.01123047,0.01123047,0.9555664,-0.2319336,-0.04492188,-0.3876953
2450,-0.125,0.0625,0.0625,-0.01123047,0.01904297,0.9711914,-0.2319336,-0.04492188,-0.3876953
2452,-0.4375,0.0625,0.1875,-0.01513672,0.02294922,0.9711914,-0.2319336,-0.04492188,-0.3876953
2454,-0.0625,-0.1875,0.125,-0.03076172,0.003417969,0.9790039,-0.234375,-0.03271484,-0.4003906
2456,-0.25,-0.125,-0.0625,-0.01123047,0.01513672,0.9829102,-0.234375,-0.03271484,-0.4003906
2458,-0.4375,0,-0.0625,-0.03466797,0.01904297,0.9750977,-0.234375,-0.03271484,-0.4003906
2460,-1.375,-2,0.25,-0.05419922,0.01904297,0.8579102,-0.234375,-0.03271484,-0.4003906
2462,0.875,-6.9375,0.9375,-0.1479492,0.1674805,0.6821289,-0.2246094,-0.04980469,-0.3979492
2464,-1.125,-6.625,0.5,0.1010742,-0.03857422,0.9399414,-0.2246094,-0.04980469,-0.3979492
2466,-0.5625,-3.75,0.5,-0.01513672,0.06201172,1.236328,-0.2246094,-0.04980469,-0.3979492
2468,-2.625,0.3125,0.1875,0.09716797,-0.05029297,1.353027,-0.2392578,-0.04736328,-0.3876953
2470,-0.25,2.1875,-0.0625,-0.08154297,0.03076172,0.9555664,-0.2392578,-0.04736328,-0.3876953
2472,0.125,3.25,0.375,-0.03076172,-0.03076172,0.8344727,-0.2392578,-0.04736328,-0.3876953
2474,0.375,2.0625,-0.125,-0.07373047,0.03076172,0.8969727,-0.2246094,-0.04492188,-0.3955078
2476,0.3125,0.625,-0.125,-0.05029297,0.04248047,1.025391,-0.2246094,-0.04492188,-0.3955078
2478,-1.125,0.5625,-0.5625,-0.07373047,-0.01513672,0.8774414,-0.2246094,-0.04492188,-0.3955078
2480,-0.0625,-0.25,-0.3125,-0.03857422,-0.01123047,0.8500977,-0.2246094,-0.04492188,-0.3955078
2482,0,-0.375,0,0,-0.03076172,0.9868164,-0.2319336,-0.03027344,-0.3901367
2484,0.5625,-0.625,0,0,-0.03076172,1.029297,-0.2319336,-0.03027344,-0.3901367
2486,-0.3125,0.3125,0.125,-0.01123047,-0.007324219,1.033203,-0.2319336,-0.03027344,-0.3901367
2488,-0.4375,0,0.1875,-0.03466797,0.02294922,1.041016,-0.2270508,-0.03271484,-0.3901367
2490,-0.5625,0.25,0.0625,-0.04638672,0.01513672,0.9399414,-0.2270508,-0.03271484,-0.3901367
2492,-0.25,-0.125,0.125,-0.03076172,0.03076172,0.9672852,-0.2270508,-0.03271484,-0.3901367
2494,-0.1875,-0.3125,0,-0.05419922,0.02685547,0.9985352,-0.2270508,-0.03271484,-0.3901367
2496,0,-0.1875,-0.125,-0.03076172,0.01513672,0.9750977,-0.2270508,-0.03271484,-0.3901367
2498,-0.0625,0,-0.0625,0.01123047,-0.003417969,0.9711914,-0.2270508,-0.03271484,-0.3901367
2500,-0.375,-0.3125,-0.1875,0.01513672,-0.007324219,0.9360352,-0.2270508,-0.03271484,-0.3901367
2502,-0.125,0,0.25,0.01123047,-0.003417969,0.9750977,-0.2246094,-0.04003906,-0.3901367
2504,-0.4375,0.25,0.375,-0.01513672,-0.007324219,0.9243164,-0.2246094,-0.04003906,-0.3901367
2506,-0.4375,0.6875,0.1875,-0.03076172,0.01513672,0.9047852,-0.2246094,-0.04003906,-0.3901367
2508,0,0.125,0.0625,-0.03466797,0.01123047,0.9165039,-0.2294922,-0.04248047,-0.4003906
2510,-0.3125,0,-0.125,-0.03857422,0.02294922,0.9594727,-0.2294922,-0.04248047,-0.4003906
2512,-0.125,0,-0.25,-0.02685547,0.01513672,1.013672,-0.2294922,-0.04248047,-0.4003906
2514,-0.125,-0.3125,-0.0625,-0.02294922,0.01513672,1.005859,-0.2294922,-0.04248047,-0.4003906
2516,-0.375,0,0.1875,-0.003417969,-0.01904297,1.029297,-0.222168,-0.04736328,-0.3852539
2518,-0.1875,0,0.125,-0.01123047,-0.007324219,1.001953,-0.222168,-0.04736328,-0.3852539
2520,-0.1875,0.25,0.3125,0,-0.02685547,0.9321289,-0.222168,-0.04736328,-0.3852539
2522,-0.25,0.1875,0.125,-0.03076172,-0.02294922,0.9165039,-0.2172852,-0.03759766,-0.3901367
2525,0,0.25,0,-0.05029297,0.01123047,0.8774414,-0.2172852,-0.03759766,-0.3901367
2527,-0.1875,0.125,-0.0625,-0.04248047,0,0.9282227,-0.2172852,-0.03759766,-0.3901367
2529,-0.4375,-0.125,0.0625,-0.03076172,0.01513672,0.9672852,-0.2148438,-0.04248047,-0.3955078
2531,-0.0625,-0.25,-0.125,-0.01513672,0.02294922,1.005859,-0.2148438,-0.04248047,-0.3955078
2533,-0.125,-0.125,-0.125,-0.01513672,0.01123047,1.005859,-0.2148438,-0.04248047,-0.3955078
2535,-0.4375,0,-0.0625,-0.003417969,0,1.044922,-0.2148438,-0.04248047,-0.3955078
2537,-0.3125,0.0625,0.0625,-0.007324219,0.01123047,0.9711914,-0.2270508,-0.04492188,-0.3852539
2539,-0.25,0.125,0,-0.03076172,0.003417969,0.9438477,-0.2270508,-0.04492188,-0.3852539
2541,-0.25,0.0625,-0.0625,-0.007324219,0.01123047,0.9243164,-0.2270508,-0.04492188,-0.3852539
2543,-0.0625,0,0,-0.03076172,0,0.9282227,-0.234375,-0.04248047,-0.3823242
2545,-0.125,0,-0.125,-0.02294922,0.007324219,0.9321289,-0.234375,-0.04248047,-0.3823242
2547,-0.25,0,0,-0.01513672,-0.01513672,0.9477539,-0.234375,-0.04248047,-0.3823242
2549,-0.125,0,0,-0.03076172,0.01123047,0.9711914,-0.2270508,-0.03027344,-0.4003906
2551,-0.375,0.25,0,-0.01904297,0.01123047,0.9829102,-0.2270508,-0.03027344,-0.4003906
2553,-0.375,0,0.1875,-0.02685547,0.01513672,0.9790039,-0.2270508,-0.03027344,-0.4003906
2555,-0.5,0,0.125,-0.03857422,0.02685547,0.9516602,-0.2270508,-0.03027344,-0.4003906
2557,-0.25,-0.0625,0,-0.03076172,0.02294922,0.9555664,-0.2294922,-0.04736328,-0.402832
2559,-0.125,0.125,0.0625,-0.04248047,0.007324219,0.9477539,-0.2294922,-0.04736328,-0.402832
2561,-0.4375,-0.25,0.0625,-0.03076172,0.007324219,0.9711914,-0.2294922,-0.04736328,-0.402832
2563,-0.1875,0,0.0625,-0.01513672,0.007324219,0.9750977,-0.222168,-0.04248047,-0.3979492
2565,-0.0625,0.0625,0.25,-0.02294922,0.01513672,0.9438477,-0.222168,-0.04248047,-0.3979492
2567,-0.1875,0.3125,0,-0.01513672,0.01123047,0.9516602,-0.222168,-0.04248047,-0.3979492
2569,0,0.25,-0.0625,-0.03857422,-0.007324219,0.9399414,-0.222168,-0.04248047,-0.3979492
2571,-0.125,0.125,0,-0.03076172,0.03076172,0.9360352,-0.222168,-0.04248047,-0.3979492
2573,0,0,0,-0.03857422,0.02294922,0.9672852,-0.222168,-0.04248047,-0.3979492
2575,-0.4375,-0.125,-0.1875,-0.01513672,0.007324219,0.9829102,-0.222168,-0.04248047,-0.3979492
2577,-0.3125,-0.375,0.0625,-0.01513672,0.01904297,0.9868164,-0.2270508,-0.03027344,-0.4003906
2579,-0.25,-0.125,-0.0625,-0.02685547,0.01904297,0.9946289,-0.2270508,-0.03027344,-0.4003906
2581,-0.1875,0,0.1875,-0.01513672,0.003417969,0.9907227,-0.2270508,-0.03027344,-0.4003906
2583,-0.4375,0.0625,0.125,-0.03076172,-0.003417969,0.9516602,-0.2246094,-0.04492188,-0.3823242
2585,-0.0625,0.1875,0.125,-0.01904297,0.01513672,0.9282227,-0.2246094,-0.04492188,-0.3823242
2587,-0.125,0,-0.0625,-0.007324219,-0.007324219,0.9243164,-0.2246094,-0.04492188,-0.3823242
2589,0,0,0.1875,-0.03076172,0.007324219,0.9516602,-0.2246094,-0.04492188,-0.3823242
2591,-0.1875,-0.125,0,-0.02294922,0.01904297,0.9555664,-0.2246094,-0.04492188,-0.3823242
2593,0,0,-0.125,-0.01513672,0,0.9946289,-0.2246094,-0.04492188,-0.3823242
2595,-0.125,-0.0625,0,-0.01904297,0,0.9829102,-0.2246094,-0.04492188,-0.3823242
2597,-0.1875,0.0625,0,-0.03076172,0.007324219,0.9907227,-0.222168,-0.04248047,-0.3901367
2599,-0.375,0.125,0,-0.03466797,-0.003417969,0.9750977,-0.222168,-0.04248047,-0.3901367
2601,-0.25,0,0.0625,-0.03076172,0.02685547,0.9477539,-0.222168,-0.04248047,-0.3901367
2603,-0.3125,0,-0.125,-0.03076172,-0.007324219,0.9672852,-0.2246094,-0.04003906,-0.3925781
2605,-0.0625,0.0625,-0.0625,-0.03076172,0,0.9399414,-0.2246094,-0.04003906,-0.3925781
2607,-0.125,0.125,-0.125,-0.02294922,0,0.9516602,-0.2246094,-0.04003906,-0.3925781
2609,-0.125,0.0625,0.125,-0.02685547,0.01904297,0.9438477,-0.2246094,-0.04003906,-0.3925781
2611,-0.125,0.125,0,-0.02294922,0.01904297,0.9477539,-0.2270508,-0.03027344,-0.3901367
2613,-0.375,0,-0.0625,-0.02685547,0.02294922,0.9711914,-0.2270508,-0.03027344,-0.3901367
2615,-0.25,-0.0625,-0.0625,-0.04248047,0.007324219,0.9946289,-0.2270508,-0.03027344,-0.3901367
2617,-0.375,0.0625,0.0625,-0.03076172,0.01123047,0.9750977,-0.2246094,-0.04248047,-0.3925781
2619,-0.0625,0,-0.0625,-0.02685547,0.02294922,0.9672852,-0.2246094,-0.04248047,-0.3925781
2621,-0.25,0,-0.0625,-0.01513672,0.01123047,0.9438477,-0.2246094,-0.04248047,-0.3925781
2623,-0.25,-0.125,0.0625,-0.06591797,0.01904297,0.9555664,-0.2124023,-0.04003906,-0.3955078
2625,-0.0625,-0.125,-0.0625,-0.02685547,-0.01513672,0.9438477,-0.2124023,-0.04003906,-0.3955078
2627,-0.3125,0,-0.0625,-0.01904297,0,0.9477539,-0.2124023,-0.04003906,-0.3955078
2629,-0.125,0.0625,0.1875,-0.01123047,0.01513672,0.9672852,-0.2124023,-0.04003906,-0.3955078
2631,-0.125,-0.1875,0.0625,-0.02294922,0.007324219,0.9672852,-0.2197266,-0.03515625,-0.3955078
2633,-0.0625,0.1875,-0.125,-0.01513672,0.01123047,0.9555664,-0.2197266,-0.03515625,-0.3955078
2635,-0.0625,0,0,-0.02294922,0.01123047,0.9868164,-0.2197266,-0.03515625,-0.3955078
2637,-0.375,0.125,0.0625,-0.01904297,0.01123047,0.9829102,-0.2124023,-0.04736328,-0.3876953
2639,-0.1875,-0.125,0.0625,-0.01513672,0.01123047,0.9750977,-0.2124023,-0.04736328,-0.3876953
2641,-0.125,0,0.125,-0.01513672,-0.003417969,0.9360352,-0.2124023,-0.04736328,-0.3876953
2643,-0.3125,0.125,0.1875,-0.02685547,0.007324219,0.9321289,-0.2270508,-0.04736328,-0.3925781
2645,-0.375,0,0.0625,-0.02685547,-0.01513672,0.9633789,-0.2270508,-0.04736328,-0.3925781
2647,-0.25,0,-0.0625,-0.01513672,-0.003417969,0.9672852,-0.2270508,-0.04736328,-0.3925781
2649,-0.0625,0.0625,0.1875,-0.03076172,0.02294922,0.9399414,-0.2270508,-0.04736328,-0.3925781
2651,-0.0625,-0.125,0,-0.03857422,0.02294922,0.9711914,-0.2172852,-0.03759766,-0.3901367
2655,-0.25,-0.125,0.125,-0.02294922,0.01904297,0.9633789,-0.2172852,-0.03759766,-0.3901367
2657,-0.0625,0,0,-0.03076172,0.01513672,0.9946289,-0.2172852,-0.03759766,-0.3901367
2659,-0.25,-0.1875,-0.125,-0.01904297,0.01513672,0.9711914,-0.2172852,-0.04492188,-0.3955078
2661,-0.3125,0,0.0625,-0.01513672,0.01904297,0.9985352,-0.2172852,-0.04492188,-0.3955078
2663,-0.375,-0.125,-0.125,-0.02685547,0.01904297,0.9399414,-0.2172852,-0.04492188,-0.3955078
2665,-0.0625,0,0.0625,-0.03076172,0.01513672,0.9672852,-0.2172852,-0.04492188,-0.3955078
2667,-0.0625,0,0,-0.02685547,0,0.9672852,-0.2172852,-0.04492188,-0.3955078
2669,-0.25,0,0.125,-0.03076172,-0.007324219,0.9516602,-0.2172852,-0.04492188,-0.3955078
2671,0,0,0.0625,-0.05029297,0.003417969,0.9516602,-0.2172852,-0.04492188,-0.3955078
2673,-0.4375,0.0625,0,-0.02685547,0.02294922,0.9594727,-0.2172852,-0.04248047,-0.3876953
2675,-0.0625,0,0.0625,-0.02294922,-0.007324219,0.9672852,-0.2172852,-0.04248047,-0.3876953
2677,-0.25,-0.125,0.125,-0.03076172,0,0.9907227,-0.2172852,-0.04248047,-0.3876953
2679,-0.25,0,-0.0625,-0.02294922,0,0.9672852,-0.2197266,-0.04492188,-0.3901367
2681,-0.125,0,0,-0.01123047,-0.007324219,0.9594727,-0.2197266,-0.04492188,-0.3901367
2683,-0.1875,0.0625,0.0625,-0.01123047,0.01513672,0.9790039,-0.2197266,-0.04492188,-0.3901367
2685,-0.0625,0,0,-0.03076172,0.007324219,0.9516602,-0.2197266,-0.04492188,-0.3901367
2687,-0.0625,0.0625,0,-0.01513672,0,0.9672852,-0.2197266,-0.04492188,-0.3901367
2689,-0.125,0.0625,0,-0.03857422,0.01904297,0.9672852,-0.2197266,-0.04492188,-0.3901367
2691,-0.0625,0.1875,0,-0.03466797,0.01904297,0.9555664,-0.2197266,-0.04492188,-0.3901367
2693,-0.4375,0,0.125,-0.01904297,-0.003417969,0.9555664,-0.2197266,-0.04248047,-0.402832
2695,-0.125,0.0625,-0.0625,-0.03076172,-0.01123047,0.9711914,-0.2197266,-0.04248047,-0.402832
2697,0.0625,0,0.0625,-0.03076172,-0.003417969,0.9790039,-0.2197266,-0.04248047,-0.402832
2699,-0.125,0.0625,0,-0.007324219,0.02685547,0.9750977,-0.2148438,-0.03759766,-0.3925781
2701,-0.1875,0,0,-0.02685547,0.01123047,0.9907227,-0.2148438,-0.03759766,-0.3925781
2703,-0.1875,0,-0.0625,-0.02294922,0.007324219,0.9790039,-0.2148438,-0.03759766,-0.3925781
2705,-0.1875,0.0625,0,-0.02685547,0.003417969,0.9750977,-0.2148438,-0.03759766,-0.3925781
2707,-0.125,0,-0.0625,-0.03076172,0,0.9477539,-0.222168,-0.04003906,-0.3876953
2709,-0.0625,0.1875,-0.0625,-0.02294922,0.01904297,0.9438477,-0.222168,-0.04003906,-0.3876953
2711,-0.3125,0,0.125,-0.02294922,0,0.9399414,-0.222168,-0.04003906,-0.3876953
2713,0,-0.125,0,-0.02685547,0.01513672,0.9672852,-0.2148438,-0.03515625,-0.3955078
2715,-0.0625,0,-0.0625,-0.02294922,0.007324219,0.9672852,-0.2148438,-0.03515625,-0.3955078
2717,-0.125,0,-0.0625,-0.02294922,0.03076172,0.9790039,-0.2148438,-0.03515625,-0.3955078
2719,-0.0625,0,-0.125,-0.007324219,0.003417969,0.9672852,-0.2197266,-0.04248047,-0.3979492
2721,-0.125,0,0.0625,-0.03076172,-0.003417969,0.9907227,-0.2197266,-0.04248047,-0.3979492
2723,-0.25,-0.1875,0.0625,-0.01513672,0.01123047,0.9790039,-0.2197266,-0.04248047,-0.3979492
2725,-0.25,0,0.0625,-0.02685547,-0.003417969,0.9711914,-0.2197266,-0.04248047,-0.3979492
2727,-0.1875,0,-0.0625,-0.03466797,0.01123047,0.9672852,-0.2246094,-0.03759766,-0.3876953
2729,-0.0625,0,-0.125,-0.01904297,0.02294922,0.9477539,-0.2246094,-0.03759766,-0.3876953
2731,-0.1875,0,0.0625,-0.02685547,0,0.9711914,-0.2246094,-0.03759766,-0.3876953
2733,-0.1875,0,0,-0.007324219,0,0.9633789,-0.2148438,-0.03759766,-0.3925781
2735,-0.125,0,-0.125,-0.02294922,0.003417969,0.9633789,-0.2148438,-0.03759766,-0.3925781
2737,-0.1875,0,-0.125,-0.01513672,0.01513672,0.9594727,-0.2148438,-0.03759766,-0.3925781
2739,-0.125,-0.0625,0,-0.01513672,0.02294922,0.9790039,-0.222168,-0.04492188,-0.3925781
2741,-0.3125,-0.0625,-0.0625,-0.02294922,0.01513672,0.9672852,-0.222168,-0.04492188,-0.3925781
2743,-0.125,0,0,-0.01513672,0.02294922,0.9829102,-0.222168,-0.04492188,-0.3925781
2745,-0.0625,0,-0.1875,-0.03076172,0,0.9829102,-0.222168,-0.04492188,-0.3925781
2747,-0.1875,0.125,-0.0625,-0.03076172,0.02294922,0.9672852,-0.2172852,-0.03759766,-0.3852539
2749,-0.125,0.0625,-0.125,-0.03076172,0.02294922,0.9672852,-0.2172852,-0.03759766,-0.3852539
2751,-0.125,0,-0.25,-0.02685547,-0.01123047,0.9477539,-0.2172852,-0.03759766,-0.3852539
2753,-0.1875,0,0.125,-0.02685547,0.007324219,0.9516602,-0.2075195,-0.04003906,-0.3852539
2755,-0.1875,0,0,-0.03076172,0.02294922,0.9477539,-0.2075195,-0.04003906,-0.3852539
2757,0,0,0.125,-0.03466797,0.01513672,0.9672852,-0.2075195,-0.04003906,-0.3852539
2759,-0.3125,0.125,-0.125,-0.007324219,0.01123047,0.9711914,-0.2075195,-0.04003906,-0.3852539
2761,-0.25,0,0,-0.03076172,0.007324219,0.9594727,-0.2075195,-0.04003906,-0.3852539
2763,-0.25,-0.0625,0.125,-0.03076172,0,0.9711914,-0.2075195,-0.04003906,-0.3852539
2765,-0.125,-0.25,0,-0.02294922,-0.007324219,0.9594727,-0.2075195,-0.04003906,-0.3852539
2767,-0.1875,-0.125,-0.1875,-0.03076172,0,0.9594727,-0.2099609,-0.03759766,-0.3852539
2769,-0.125,0,0.125,-0.01513672,-0.003417969,0.9555664,-0.2099609,-0.03759766,-0.3852539
2771,-0.25,0,0.0625,-0.03076172,0,0.9399414,-0.2099609,-0.03759766,-0.3852539
2773,-0.3125,0,0,-0.02294922,-0.007324219,0.9594727,-0.2099609,-0.04003906,-0.402832
2775,-0.3125,-0.1875,0,-0.01513672,0,0.9477539,-0.2099609,-0.04003906,-0.402832
2777,-0.25,0.3125,0.0625,-0.02685547,0.01904297,0.9594727,-0.2099609,-0.04003906,-0.402832
2779,-0.125,0.0625,-0.125,-0.02294922,0.01904297,0.9516602,-0.2099609,-0.04003906,-0.402832
2781,-0.1875,0,0,-0.03076172,0.003417969,0.9711914,-0.2148438,-0.03515625,-0.3955078
2784,-0.1875,0,0.0625,-0.01513672,0,0.9711914,-0.2148438,-0.03515625,-0.3955078
2786,0,0.0625,0.0625,-0.03466797,0.007324219,0.9829102,-0.2148438,-0.03515625,-0.3955078
2788,-0.375,0.1875,0,-0.01513672,0.01513672,0.9516602,-0.2148438,-0.04003906,-0.3955078
2790,-0.25,0.0625,0,-0.01513672,0.02685547,0.9555664,-0.2148438,-0.04003906,-0.3955078
2792,-0.1875,0,0.0625,-0.03466797,0.01513672,0.9360352,-0.2148438,-0.04003906,-0.3955078
2794,-0.1875,0,0.0625,-0.01904297,0.02685547,0.9555664,-0.2246094,-0.03515625,-0.4003906
2796,-0.1875,0.0625,0.125,-0.04248047,0.01513672,0.9594727,-0.2246094,-0.03515625,-0.4003906
