Packet Number,Gyroscope X (deg/s),Gyroscope Y (deg/s),Gyroscope Z (deg/s),Accelerometer X (g),Accelerometer Y (g),Accelerometer Z (g),Magnetometer X (G),Magnetometer Y (G),Magnetometer Z (G)
69,0.125,-0.0625,-0.125,-0.02685547,0,0.9985352,-0.1923828,-0.2016602,-0.4418945
71,0.125,-0.0625,-0.125,-0.02685547,0,0.9985352,-0.1923828,-0.2016602,-0.4418945
73,-0.0625,0,-0.125,0.007324219,-0.007324219,0.9907227,-0.1967773,-0.215332,-0.4467773
75,0,-0.25,0,-0.01123047,0,0.9790039,-0.1967773,-0.215332,-0.4467773
77,0,-0.1875,-0.125,-0.003417969,0,0.9555664,-0.1967773,-0.215332,-0.4467773
79,-0.0625,0,-0.1875,-0.007324219,0,0.9790039,-0.1967773,-0.215332,-0.4467773
81,0,-0.25,-0.25,0.007324219,0.003417969,0.9985352,-0.1967773,-0.215332,-0.4467773
83,-0.125,0,-0.125,-0.01904297,0.01513672,0.9985352,-0.1967773,-0.2177734,-0.4443359
85,-0.0625,-0.0625,-0.1875,0,0.01513672,0.9868164,-0.1967773,-0.2177734,-0.4443359
87,-0.125,-0.0625,-0.1875,-0.003417969,-0.003417969,0.9829102,-0.1967773,-0.2177734,-0.4443359
89,0.125,-0.125,-0.1875,-0.003417969,-0.01513672,0.9790039,-0.1923828,-0.2109375,-0.4570313
91,0,-0.1875,0,0,-0.01513672,0.9750977,-0.1923828,-0.2109375,-0.4570313
93,-0.3125,0,-0.1875,0,0.003417969,0.9985352,-0.1923828,-0.2109375,-0.4570313
95,-0.0625,0,-0.125,-0.01123047,0.007324219,0.9946289,-0.1923828,-0.2084961,-0.4443359
97,-0.125,-0.125,-0.0625,-0.01123047,-0.01513672,0.9790039,-0.1923828,-0.2084961,-0.4443359
99,0,-0.0625,-0.25,0.01123047,0.007324219,0.9868164,-0.1923828,-0.2084961,-0.4443359
101,-0.0625,-0.1875,-0.125,-0.007324219,0.01123047,0.9829102,-0.1923828,-0.2084961,-0.4443359
103,0,-0.25,-0.1875,-0.01123047,-0.01513672,0.9711914,-0.1899414,-0.2109375,-0.4418945
105,-0.125,0,-0.125,-0.01904297,-0.01513672,0.9946289,-0.1899414,-0.2109375,-0.4418945
107,-0.0625,0.0625,0,-0.01123047,0.01513672,0.9790039,-0.1899414,-0.2109375,-0.4418945
109,0.0625,0,-0.125,-0.01513672,-0.007324219,0.9790039,-0.1899414,-0.2202148,-0.4394531
111,-0.125,0.0625,-0.1875,-0.003417969,0.01123047,0.9868164,-0.1899414,-0.2202148,-0.4394531
113,-0.1875,-0.25,-0.1875,-0.003417969,-0.01123047,0.9790039,-0.1899414,-0.2202148,-0.4394531
115,-0.25,0,0,-0.02294922,-0.007324219,0.9868164,-0.1875,-0.2109375,-0.4443359
117,-0.0625,0.0625,-0.125,-0.01513672,-0.003417969,1.001953,-0.1875,-0.2109375,-0.4443359
119,0,-0.0625,-0.4375,-0.02685547,0.007324219,0.9711914,-0.1875,-0.2109375,-0.4443359
121,-0.1875,0,-0.25,0,0,0.9868164,-0.1875,-0.2109375,-0.4443359
123,-0.125,0,-0.1875,0,-0.003417969,0.9829102,-0.1875,-0.2109375,-0.4443359
125,0,0,-0.25,-0.01513672,0.003417969,0.9672852,-0.1875,-0.2109375,-0.4443359
127,-0.25,0,-0.1875,-0.007324219,-0.01123047,0.9711914,-0.1875,-0.2109375,-0.4443359
129,-0.1875,0,-0.1875,-0.02685547,-0.01904297,0.9790039,-0.1923828,-0.2133789,-0.4394531
131,0,0,0,-0.01513672,0.003417969,0.9946289,-0.1923828,-0.2133789,-0.4394531
133,-0.125,-0.125,-0.0625,-0.007324219,0.007324219,0.9829102,-0.1923828,-0.2133789,-0.4394531
135,0,0,-0.125,-0.02294922,-0.003417969,0.9946289,-0.1943359,-0.2084961,-0.4418945
137,0,0,-0.1875,-0.007324219,0.01513672,0.9868164,-0.1943359,-0.2084961,-0.4418945
139,-0.0625,0,-0.0625,-0.01904297,0,0.9750977,-0.1943359,-0.2084961,-0.4418945
141,0,-0.0625,-0.0625,-0.01904297,-0.01513672,0.9711914,-0.1943359,-0.2084961,-0.434082
143,0,-0.0625,-0.0625,0,-0.003417969,0.9946289,-0.1943359,-0.2084961,-0.434082
145,0,0,0,0,-0.003417969,0.9790039,-0.1943359,-0.2084961,-0.434082
147,-0.1875,0,-0.125,0.003417969,-0.007324219,0.9790039,-0.1943359,-0.2084961,-0.434082
149,0,-0.0625,-0.3125,0.003417969,0,0.9750977,-0.1899414,-0.2133789,-0.4418945
151,0,-0.1875,-0.25,0,0.003417969,0.9907227,-0.1899414,-0.2133789,-0.4418945
153,-0.0625,0,-0.0625,-0.01904297,-0.01513672,0.9907227,-0.1899414,-0.2133789,-0.4418945
155,0.125,0,-0.25,-0.01513672,-0.01513672,0.9985352,-0.2036133,-0.215332,-0.4394531
157,-0.0625,-0.0625,0,-0.01513672,0.003417969,0.9750977,-0.2036133,-0.215332,-0.4394531
159,-0.125,0,0,-0.02294922,-0.01513672,1.001953,-0.2036133,-0.215332,-0.4394531
161,-0.0625,0.1875,-0.3125,-0.02685547,-0.003417969,0.9985352,-0.2060547,-0.2109375,-0.4418945
163,-0.0625,-0.25,-0.0625,-0.01904297,0.01123047,0.9868164,-0.2060547,-0.2109375,-0.4418945
165,-0.0625,0.1875,0,-0.003417969,-0.003417969,0.9790039,-0.2060547,-0.2109375,-0.4418945
167,0,0.125,-0.1875,-0.01904297,0,0.9672852,-0.2060547,-0.2109375,-0.4418945
169,-0.125,0,-0.0625,0.003417969,-0.007324219,0.9790039,-0.2060547,-0.2109375,-0.4418945
171,-0.1875,0,-0.125,-0.01904297,0,0.9946289,-0.2060547,-0.2109375,-0.4418945
173,-0.0625,0,-0.0625,-0.01513672,-0.003417969,0.9750977,-0.2060547,-0.2109375,-0.4418945
175,-0.0625,0,-0.125,-0.02294922,0.007324219,0.9672852,-0.1967773,-0.2109375,-0.4287109
177,-0.125,-0.25,-0.125,-0.01123047,-0.01123047,0.9907227,-0.1967773,-0.2109375,-0.4287109
179,0,-0.125,-0.1875,-0.01904297,0,0.9750977,-0.1967773,-0.2109375,-0.4287109
181,-0.3125,0,0,-0.02294922,0.003417969,0.9868164,-0.1943359,-0.2084961,-0.4418945
183,0,0,-0.1875,-0.007324219,0.01123047,0.9907227,-0.1943359,-0.2084961,-0.4418945
185,0,0.0625,-0.0625,-0.007324219,-0.003417969,0.9985352,-0.1943359,-0.2084961,-0.4418945
187,-0.3125,-0.1875,0,-0.01904297,0.003417969,0.9868164,-0.1992188,-0.215332,-0.4316406
189,0,-0.0625,-0.0625,-0.02294922,0.007324219,0.9868164,-0.1992188,-0.215332,-0.4316406
191,-0.0625,0,-0.1875,-0.003417969,0.007324219,0.9790039,-0.1992188,-0.215332,-0.4316406
193,0,-0.1875,-0.1875,-0.007324219,0.007324219,0.9829102,-0.1992188,-0.215332,-0.4316406
195,-0.0625,-0.125,-0.0625,-0.003417969,0,0.9946289,-0.1992188,-0.215332,-0.4316406
198,-0.125,0,-0.125,0.003417969,0,0.9907227,-0.1992188,-0.215332,-0.4316406
200,-0.25,0.0625,-0.0625,-0.02294922,0.003417969,0.9868164,-0.1992188,-0.215332,-0.4316406
202,-0.1875,-0.0625,-0.25,-0.03076172,0.007324219,0.9790039,-0.1943359,-0.2109375,-0.434082
204,-0.125,0,-0.125,0.003417969,0,0.9868164,-0.1943359,-0.2109375,-0.434082
206,0,0.0625,0,-0.003417969,0.01123047,0.9790039,-0.1943359,-0.2109375,-0.434082
208,-0.0625,0,-0.5,0.01123047,-0.01123047,0.9555664,-0.1943359,-0.2060547,-0.4394531
210,0,0,0,-0.01904297,-0.003417969,0.9907227,-0.1943359,-0.2060547,-0.4394531
212,-0.0625,0,-0.5625,0,-0.007324219,0.9829102,-0.1943359,-0.2060547,-0.4394531
214,-0.3125,-0.3125,-0.0625,-0.01904297,-0.01513672,0.9868164,-0.1943359,-0.215332,-0.4443359
216,-0.125,-0.1875,-0.125,0.007324219,0.01123047,0.9907227,-0.1943359,-0.215332,-0.4443359
218,-0.0625,0,-0.1875,-0.01513672,0,0.9868164,-0.1943359,-0.215332,-0.4443359
220,-0.1875,0,-0.0625,0.007324219,0.01123047,0.9711914,-0.1943359,-0.215332,-0.4443359
222,-0.125,0,-0.125,-0.003417969,0.003417969,0.9829102,-0.1967773,-0.2109375,-0.4365234
224,0.0625,-0.1875,0,-0.003417969,-0.003417969,0.9946289,-0.1967773,-0.2109375,-0.4365234
226,-0.125,0.1875,-0.125,-0.007324219,-0.003417969,0.9868164,-0.1967773,-0.2109375,-0.4365234
228,0,-0.1875,-0.0625,-0.01904297,0.003417969,0.9750977,-0.2036133,-0.2084961,-0.4418945
230,-0.125,-0.125,-0.0625,0,0.01123047,0.9790039,-0.2036133,-0.2084961,-0.4418945
232,-0.125,-0.0625,-0.1875,-0.01513672,-0.01513672,0.9829102,-0.2036133,-0.2084961,-0.4418945
234,-0.0625,-0.125,-0.125,-0.01123047,0.01123047,0.9790039,-0.1943359,-0.2016602,-0.4365234
236,0,0,0,0,0.003417969,0.9750977,-0.1943359,-0.2016602,-0.4365234
238,-0.0625,-0.125,-0.375,-0.003417969,0.007324219,0.9829102,-0.1943359,-0.2016602,-0.4365234
240,-0.0625,0,-0.125,-0.01513672,0,0.9868164,-0.1943359,-0.2016602,-0.4365234
242,-0.125,-0.0625,0,-0.04638672,-0.003417969,0.9829102,-0.1943359,-0.2016602,-0.4365234
244,-0.125,0.125,-0.1875,-0.007324219,0.01513672,1.001953,-0.1943359,-0.2016602,-0.4365234
246,-0.125,0.0625,-0.0625,-0.003417969,0,1.005859,-0.1943359,-0.2016602,-0.4365234
248,0.0625,0,-0.125,-0.01904297,0,0.9829102,-0.1943359,-0.2133789,-0.4394531
250,0.0625,0.0625,-0.125,0.003417969,0.007324219,0.9711914,-0.1943359,-0.2133789,-0.4394531
252,0,-0.125,-0.25,-0.01904297,0.003417969,0.9985352,-0.1943359,-0.2133789,-0.4394531
254,-0.125,0,-0.0625,-0.007324219,0.003417969,0.9750977,-0.1899414,-0.2041016,-0.4467773
256,0,-0.25,-0.1875,0.03076172,0.01513672,0.9868164,-0.1899414,-0.2041016,-0.4467773
258,0,0,-0.125,-0.02685547,0,0.9985352,-0.1899414,-0.2041016,-0.4467773
260,-0.125,-0.0625,-0.0625,-0.003417969,0.01123047,0.9750977,-0.1943359,-0.2060547,-0.4443359
262,-0.125,-0.4375,-0.1875,-0.01123047,-0.003417969,0.9985352,-0.1943359,-0.2060547,-0.4443359
264,-0.1875,-0.1875,-0.25,-0.01904297,0,0.9711914,-0.1943359,-0.2060547,-0.4443359
266,0,0,-0.0625,-0.02685547,0,0.9790039,-0.1943359,-0.2060547,-0.4443359
268,-0.0625,0,-0.0625,-0.01513672,0.003417969,0.9790039,-0.1899414,-0.2084961,-0.4365234
270,0,0,-0.1875,-0.01513672,0.01123047,0.9829102,-0.1899414,-0.2084961,-0.4365234
272,-0.375,-0.0625,0,-0.003417969,0.01123047,0.9829102,-0.1899414,-0.2084961,-0.4365234
274,-0.125,0,-0.0625,0,0.007324219,0.9907227,-0.1967773,-0.2084961,-0.4365234
276,-0.1875,0,-0.125,-0.003417969,-0.01513672,0.9829102,-0.1967773,-0.2084961,-0.4365234
278,-0.1875,-0.25,-0.25,-0.003417969,0.003417969,0.9750977,-0.1967773,-0.2084961,-0.4365234
280,-0.1875,-0.1875,-0.25,-0.01513672,0.003417969,0.9790039,-0.1943359,-0.2084961,-0.4394531
282,-0.125,0,-0.1875,-0.04248047,-0.003417969,0.9907227,-0.1943359,-0.2084961,-0.4394531
284,-0.125,0,-0.25,0,0.01513672,1.013672,-0.1943359,-0.2084961,-0.4394531
286,0,0,-0.125,-0.003417969,-0.01513672,0.9633789,-0.1943359,-0.2084961,-0.4394531
288,0,0,-0.25,-0.01123047,-0.01513672,0.9985352,-0.1943359,-0.2084961,-0.4394531
290,-0.0625,0,-0.125,-0.01123047,-0.007324219,0.9829102,-0.1943359,-0.2084961,-0.4394531
292,-0.1875,0,-0.0625,-0.01123047,0.003417969,0.9907227,-0.1943359,-0.2084961,-0.4394531
294,0,0,-0.25,-0.007324219,-0.007324219,0.9711914,-0.2036133,-0.2133789,-0.4467773
296,-0.0625,-0.1875,0,-0.007324219,0.003417969,0.9946289,-0.2036133,-0.2133789,-0.4467773
298,-0.0625,0,-0.125,-0.003417969,-0.01513672,0.9672852,-0.2036133,-0.2133789,-0.4467773
300,-0.125,0,-0.1875,-0.03466797,0.01123047,0.9868164,-0.1967773,-0.2109375,-0.4316406
302,-0.0625,0,-0.125,-0.003417969,0.02294922,0.9946289,-0.1967773,-0.2109375,-0.4316406
304,-0.0625,-0.0625,-0.1875,-0.02294922,0.003417969,0.9985352,-0.1967773,-0.2109375,-0.4316406
306,-0.1875,0,-0.125,-0.01904297,0,1.001953,-0.1992188,-0.2133789,-0.4394531
309,0,0,-0.1875,-0.02685547,0.003417969,0.9868164,-0.1992188,-0.2133789,-0.4394531
311,-0.125,0,-0.0625,-0.02294922,0.01513672,0.9672852,-0.1992188,-0.2133789,-0.4394531
313,0,0,-0.1875,0,0.01513672,0.9868164,-0.1967773,-0.2109375,-0.4418945
315,-0.0625,-0.0625,-0.125,-0.003417969,0.01513672,0.9633789,-0.1967773,-0.2109375,-0.4418945
317,-0.25,-0.1875,-0.25,-0.01123047,-0.01513672,0.9907227,-0.1899414,-0.2133789,-0.4365234
319,-0.0625,0,-0.1875,0.003417969,0,0.9985352,-0.1899414,-0.2133789,-0.4365234
321,0,-0.0625,0,-0.007324219,-0.007324219,0.9711914,-0.1899414,-0.2133789,-0.4365234
323,-0.1875,-0.3125,0,-0.02685547,-0.007324219,0.9829102,-0.1923828,-0.2060547,-0.4443359
325,-0.125,0,-0.25,-0.01904297,-0.003417969,0.9829102,-0.1923828,-0.2060547,-0.4443359
328,0,0,0,-0.01513672,0.01123047,0.9946289,-0.1923828,-0.2060547,-0.4443359
330,-0.3125,0,-0.1875,-0.01513672,0.01904297,0.9790039,-0.1923828,-0.2060547,-0.4443359
332,0,0,-0.0625,0,0.007324219,0.9829102,-0.1923828,-0.2060547,-0.4443359
334,-0.0625,0,0,-0.007324219,-0.01123047,0.9750977,-0.1923828,-0.2060547,-0.4443359
336,-0.0625,-0.1875,0,-0.01904297,0,0.9672852,-0.1923828,-0.2060547,-0.4443359
338,0.0625,-0.1875,-0.1875,-0.01904297,0.003417969,0.9829102,-0.1923828,-0.2109375,-0.4467773
340,-0.0625,0,-0.0625,-0.007324219,0.02294922,0.9985352,-0.1923828,-0.2109375,-0.4467773
342,0.0625,-0.1875,-0.125,-0.007324219,0.003417969,0.9868164,-0.1923828,-0.2109375,-0.4467773
344,-0.0625,-0.0625,-0.0625,-0.01904297,0.003417969,0.9711914,-0.1923828,-0.215332,-0.434082
346,0,0,-0.1875,-0.003417969,0.003417969,0.9672852,-0.1923828,-0.215332,-0.434082
348,-0.125,0,-0.1875,-0.01904297,0,0.9868164,-0.1923828,-0.215332,-0.434082
350,0,0,-0.0625,0.003417969,-0.01513672,0.9868164,-0.1943359,-0.2084961,-0.4467773
352,-0.0625,0.1875,-0.25,-0.003417969,0.01123047,0.9555664,-0.1943359,-0.2084961,-0.4467773
354,0,-0.25,-0.1875,-0.01904297,0.007324219,0.9750977,-0.1943359,-0.2084961,-0.4467773
356,-0.3125,0,-0.1875,-0.01123047,0,0.9907227,-0.1943359,-0.2084961,-0.4467773
358,0,-0.1875,-0.0625,-0.03466797,0.007324219,0.9711914,-0.1943359,-0.2084961,-0.4467773
360,-0.0625,0,-0.1875,-0.003417969,-0.007324219,0.9829102,-0.1943359,-0.2084961,-0.4467773
362,-0.125,-0.125,-0.0625,-0.01123047,0.01123047,0.9633789,-0.1943359,-0.2084961,-0.4467773
364,-0.1875,-0.125,0,-0.01904297,0.01123047,0.9790039,-0.1923828,-0.2133789,-0.4443359
366,-0.125,-0.375,-0.25,-0.02294922,-0.003417969,1.009766,-0.1923828,-0.2133789,-0.4443359
368,-0.125,0,-0.375,-0.01123047,0.007324219,0.9750977,-0.1923828,-0.2133789,-0.4443359
370,0,0,-0.1875,-0.007324219,-0.01123047,0.9946289,-0.1967773,-0.2133789,-0.4394531
372,0,-0.25,-0.125,0,0.01904297,0.9790039,-0.1967773,-0.2133789,-0.4394531
374,0,-0.0625,-0.125,-0.01513672,0,0.9985352,-0.1967773,-0.2133789,-0.4394531
376,0,0.0625,0,-0.01123047,0.003417969,0.9946289,-0.1943359,-0.2133789,-0.4287109
378,-0.125,0,-0.5,-0.03076172,0,0.9868164,-0.1943359,-0.2133789,-0.4287109
380,0,0,0,-0.007324219,0.01904297,0.9868164,-0.1943359,-0.2133789,-0.4287109
382,-0.1875,0,-0.1875,0.003417969,0.01513672,0.9711914,-0.1943359,-0.2133789,-0.4287109
384,-0.125,-0.0625,-0.25,-0.01904297,0.003417969,0.9750977,-0.1992188,-0.2109375,-0.4443359
386,0,-0.0625,-0.1875,0.003417969,0.01513672,1.001953,-0.1992188,-0.2109375,-0.4443359
388,-0.0625,0,0,-0.003417969,0,0.9790039,-0.1992188,-0.2109375,-0.4443359
390,-0.0625,-0.0625,-0.3125,-0.03076172,-0.007324219,0.9829102,-0.1992188,-0.2084961,-0.4418945
392,-0.125,0.0625,-0.1875,-0.003417969,0,0.9711914,-0.1992188,-0.2084961,-0.4418945
394,-0.0625,0,-0.1875,-0.01513672,-0.007324219,0.9750977,-0.1992188,-0.2084961,-0.4418945
396,-0.25,-0.25,-0.25,-0.01123047,-0.007324219,0.9907227,-0.1943359,-0.2133789,-0.4316406
398,0,0,-0.1875,-0.01123047,-0.01513672,0.9750977,-0.1943359,-0.2133789,-0.4316406
400,0,-0.25,-0.0625,-0.01123047,0.01904297,0.9946289,-0.1943359,-0.2133789,-0.4316406
402,0,-0.1875,-0.4375,-0.01904297,0.01123047,0.9868164,-0.1943359,-0.2133789,-0.4316406
404,0,-0.375,-0.0625,0.007324219,-0.003417969,0.9633789,-0.1943359,-0.2133789,-0.4316406
406,0,-0.25,-0.125,-0.003417969,0.007324219,1.001953,-0.1943359,-0.2133789,-0.4316406
408,0,0.125,-0.0625,0.003417969,0.003417969,0.9790039,-0.1943359,-0.2133789,-0.4316406
410,0,0.0625,-0.0625,-0.007324219,0,0.9985352,-0.1967773,-0.2016602,-0.4418945
412,0,-0.0625,-0.125,0,-0.007324219,0.9711914,-0.1967773,-0.2016602,-0.4418945
414,0,0.0625,-0.1875,-0.01904297,0.01904297,0.9711914,-0.1967773,-0.2016602,-0.4418945
416,-0.25,0,-0.125,0,0.02685547,1.005859,-0.1967773,-0.2202148,-0.4365234
418,-0.125,-0.0625,0,-0.003417969,0.007324219,0.9672852,-0.1967773,-0.2202148,-0.4365234
420,0.0625,0,-0.1875,-0.01123047,0.01513672,0.9790039,-0.1967773,-0.2202148,-0.4365234
422,-0.0625,-0.1875,-0.375,-0.01513672,0.007324219,0.9907227,-0.1967773,-0.215332,-0.4394531
424,-0.0625,0.0625,-0.125,-0.01904297,0,0.9750977,-0.1967773,-0.215332,-0.4394531
426,-0.0625,0,-0.25,-0.01123047,-0.007324219,0.9672852,-0.1967773,-0.215332,-0.4394531
428,-0.125,0.0625,-0.0625,-0.01123047,0,0.9829102,-0.1967773,-0.215332,-0.4394531
430,0,-0.1875,-0.3125,-0.003417969,-0.007324219,0.9985352,-0.1992188,-0.2133789,-0.4394531
432,0,0,-0.25,0.003417969,0.007324219,0.9711914,-0.1992188,-0.2133789,-0.4394531
434,-0.1875,0.0625,-0.125,-0.003417969,-0.003417969,0.9790039,-0.1992188,-0.2133789,-0.4394531
436,-0.0625,0,-0.4375,-0.01513672,0.01513672,0.9829102,-0.2016602,-0.2133789,-0.4443359
438,-0.1875,-0.25,-0.25,0,0.007324219,0.9711914,-0.2016602,-0.2133789,-0.4443359
440,-0.125,0,-0.125,0.007324219,0.007324219,0.9907227,-0.2016602,-0.2133789,-0.4443359
442,-0.25,-0.1875,-0.125,-0.007324219,0,0.9946289,-0.1992188,-0.215332,-0.4443359
444,-0.125,-0.125,-0.25,-0.003417969,0.01123047,0.9868164,-0.1992188,-0.215332,-0.4443359
446,0,-0.3125,-0.25,-0.01904297,-0.003417969,0.9868164,-0.1992188,-0.215332,-0.4443359
448,-0.1875,-0.1875,0,-0.01513672,0.01904297,0.9711914,-0.1992188,-0.215332,-0.4443359
450,-0.4375,0,-0.125,-0.01513672,0.007324219,0.9750977,-0.1992188,-0.215332,-0.4443359
452,-0.125,-0.0625,-0.0625,-0.02685547,0.01123047,0.9907227,-0.1992188,-0.215332,-0.4443359
454,0,-0.0625,0,-0.007324219,-0.003417969,0.9750977,-0.1992188,-0.215332,-0.4443359
457,-0.0625,-0.1875,-0.375,-0.01123047,0.003417969,0.9829102,-0.1923828,-0.2084961,-0.4365234
459,-0.0625,0,-0.125,0,-0.01123047,0.9829102,-0.1923828,-0.2084961,-0.4365234
461,0,-0.25,-0.375,0,0.007324219,0.9633789,-0.1923828,-0.2084961,-0.4365234
463,-0.0625,0,-0.125,-0.01904297,0.003417969,0.9633789,-0.1943359,-0.2084961,-0.4443359
465,-0.125,-0.0625,-0.125,0,-0.02294922,0.9868164,-0.1943359,-0.2084961,-0.4443359
467,0.125,0,0,-0.01123047,0.007324219,0.9868164,-0.1943359,-0.2084961,-0.4443359
469,0,-0.125,-0.0625,-0.01123047,0.003417969,0.9985352,-0.1943359,-0.2133789,-0.4394531
471,-0.125,0,-0.375,0.02294922,0.01123047,0.9985352,-0.1943359,-0.2133789,-0.4394531
473,-0.125,0.0625,-0.0625,-0.003417969,-0.003417969,0.9790039,-0.1943359,-0.2133789,-0.4394531
475,0.0625,0,-0.125,-0.007324219,-0.01123047,0.9985352,-0.1943359,-0.2133789,-0.4394531
477,-0.375,0,-0.1875,-0.02294922,-0.003417969,0.9711914,-0.1967773,-0.2109375,-0.4443359
479,-0.0625,0,0,-0.003417969,0.01513672,0.9868164,-0.1967773,-0.2109375,-0.4443359
481,-0.1875,-0.25,-0.125,0,0.01123047,1.001953,-0.1967773,-0.2109375,-0.4443359
483,0,0,-0.0625,-0.003417969,0.01513672,0.9829102,-0.1992188,-0.2177734,-0.4394531
485,-0.0625,0,-0.0625,-0.007324219,0.01123047,0.9946289,-0.1992188,-0.2177734,-0.4394531
487,-0.1875,0,-0.1875,0.01513672,0.01123047,0.9985352,-0.1992188,-0.2177734,-0.4394531
489,-0.1875,0,-0.1875,-0.003417969,0.003417969,0.9907227,-0.1992188,-0.2060547,-0.4365234
491,-0.125,0,-0.125,-0.01123047,-0.007324219,0.9907227,-0.1992188,-0.2060547,-0.4365234
493,-0.3125,0,-0.0625,-0.02685547,0,0.9790039,-0.1992188,-0.2060547,-0.4365234
495,-0.0625,0,-0.125,-0.01123047,0.007324219,0.9868164,-0.1992188,-0.2060547,-0.4394531
497,-0.125,0.0625,-0.25,-0.01904297,0,0.9868164,-0.1992188,-0.2060547,-0.4394531
499,-0.1875,-0.1875,-0.125,-0.01513672,0,0.9790039,-0.1992188,-0.2060547,-0.4394531
501,-0.0625,0.0625,-0.125,0,0,0.9907227,-0.1992188,-0.2060547,-0.4394531
503,0,0.125,-0.125,-0.007324219,0.003417969,0.9829102,-0.1875,-0.2084961,-0.4418945
505,-0.125,0,-0.0625,-0.03076172,-0.01123047,0.9594727,-0.1875,-0.2084961,-0.4418945
507,-0.125,0,-0.1875,0,0.01123047,1.001953,-0.1875,-0.2084961,-0.4418945
509,0,0,-0.0625,-0.007324219,-0.01513672,0.9868164,-0.1923828,-0.2109375,-0.4365234
511,-0.0625,0.0625,-0.0625,-0.003417969,0.01123047,0.9750977,-0.1923828,-0.2109375,-0.4365234
513,-0.1875,0,-0.25,-0.02294922,0,0.9672852,-0.1923828,-0.2109375,-0.4365234
515,-0.125,0.0625,-0.1875,-0.003417969,0.007324219,0.9790039,-0.1899414,-0.2177734,-0.449707
517,0,0,0,-0.02685547,0.01123047,0.9829102,-0.1899414,-0.2177734,-0.449707
519,0,0.0625,-0.25,-0.02294922,0.007324219,0.9946289,-0.1899414,-0.2177734,-0.449707
521,-0.125,-0.1875,0,-0.01904297,0.003417969,0.9633789,-0.1899414,-0.2177734,-0.449707
523,0,0.0625,-0.1875,-0.01904297,0,0.9672852,-0.1899414,-0.2177734,-0.449707
525,-0.0625,-0.1875,-0.125,0.007324219,0.007324219,0.9790039,-0.1899414,-0.2177734,-0.449707
527,-0.1875,0,-0.125,-0.01513672,-0.007324219,0.9868164,-0.1899414,-0.2177734,-0.449707
529,0.0625,0.125,-0.1875,-0.02685547,-0.007324219,0.9829102,-0.1875,-0.2084961,-0.4467773
531,0,0,-0.3125,-0.01513672,0,0.9829102,-0.1875,-0.2084961,-0.4467773
533,0,-0.1875,-0.1875,-0.01123047,-0.007324219,0.9672852,-0.1875,-0.2084961,-0.4467773
535,-0.125,-0.125,-0.125,-0.01904297,0,0.9946289,-0.1899414,-0.215332,-0.4394531
537,0,-0.0625,-0.125,-0.01123047,-0.003417969,1.009766,-0.1899414,-0.215332,-0.4394531
539,-0.3125,-0.0625,0,-0.01123047,0.007324219,0.9868164,-0.1899414,-0.215332,-0.4394531
541,-0.1875,0,-0.3125,0.003417969,0.003417969,0.9868164,-0.1992188,-0.2060547,-0.4545898
543,-0.25,-0.1875,-0.4375,-0.003417969,-0.007324219,0.9790039,-0.1992188,-0.2060547,-0.4545898
545,-0.1875,-0.0625,-0.1875,-0.01904297,0.01123047,0.9750977,-0.1992188,-0.2060547,-0.4545898
547,-0.375,-0.0625,-0.1875,-0.007324219,0,0.9790039,-0.1992188,-0.2060547,-0.4545898
549,0,-0.25,-0.1875,-0.01123047,0.01123047,0.9594727,-0.1943359,-0.2084961,-0.4443359
551,-0.125,0.125,-0.1875,-0.01123047,0.007324219,0.9750977,-0.1943359,-0.2084961,-0.4443359
553,-0.0625,-0.3125,-0.25,0.003417969,-0.003417969,0.9985352,-0.1943359,-0.2084961,-0.4443359
555,-0.25,0,-0.125,-0.02685547,0,0.9829102,-0.1923828,-0.2202148,-0.4394531
557,-0.125,0,-0.1875,-0.02294922,0.003417969,0.9907227,-0.1923828,-0.2202148,-0.4394531
559,-0.25,0,-0.0625,0,-0.01123047,0.9790039,-0.1923828,-0.2202148,-0.4394531
561,0,0,-0.1875,-0.007324219,0,0.9672852,-0.2036133,-0.2060547,-0.4365234
563,-0.125,0.0625,-0.0625,-0.02294922,-0.003417969,0.9633789,-0.2036133,-0.2060547,-0.4365234
565,-0.0625,-0.3125,-0.1875,0,-0.003417969,0.9907227,-0.2036133,-0.2060547,-0.4365234
567,-0.0625,0,-0.125,-0.01904297,0.003417969,0.9868164,-0.2036133,-0.2060547,-0.4365234
569,-0.1875,0,-0.125,-0.003417969,0.007324219,0.9790039,-0.2036133,-0.2060547,-0.4365234
571,-0.1875,-0.1875,-0.4375,-0.007324219,0.007324219,0.9750977,-0.2036133,-0.2060547,-0.4365234
573,-0.125,-0.1875,-0.125,-0.007324219,0.01513672,0.9633789,-0.2036133,-0.2060547,-0.4365234
575,-0.1875,0,-0.1875,-0.003417969,-0.007324219,0.9829102,-0.1923828,-0.215332,-0.4365234
577,-0.0625,0,0.0625,-0.01123047,-0.003417969,0.9711914,-0.1923828,-0.215332,-0.4365234
579,0,-0.125,-0.125,-0.003417969,-0.003417969,0.9868164,-0.1923828,-0.215332,-0.4365234
581,-0.125,0.0625,0.0625,-0.02685547,-0.003417969,0.9868164,-0.1923828,-0.2133789,-0.4287109
583,-0.375,-0.3125,-0.1875,-0.01904297,-0.01123047,1.001953,-0.1923828,-0.2133789,-0.4287109
587,-0.1875,-0.1875,-0.25,0,0,0.9868164,-0.1923828,-0.2133789,-0.4287109
589,0.0625,0,-0.25,0.003417969,0.01513672,0.9790039,-0.1943359,-0.2084961,-0.4365234
591,-0.0625,-0.0625,-0.4375,-0.003417969,0.003417969,0.9672852,-0.1943359,-0.2084961,-0.4365234
593,0.0625,0,-0.1875,-0.03466797,-0.007324219,0.9907227,-0.1943359,-0.2084961,-0.4365234
595,-0.125,-0.0625,-0.1875,-0.01123047,-0.007324219,0.9750977,-0.1943359,-0.2084961,-0.4365234
597,-0.125,-0.1875,-0.4375,-0.01123047,0.01904297,1.001953,-0.1899414,-0.2084961,-0.4467773
599,0,0,-0.0625,-0.01123047,0,0.9829102,-0.1899414,-0.2084961,-0.4467773
601,-0.1875,-0.25,-0.0625,0.01513672,0.01123047,0.9907227,-0.1899414,-0.2084961,-0.4467773
603,0,0,-0.25,-0.003417969,0.01904297,1.013672,-0.1899414,-0.2133789,-0.4443359
605,-0.125,0,-0.25,-0.007324219,-0.003417969,0.9985352,-0.1899414,-0.2133789,-0.4443359
607,0,0,-0.0625,-0.007324219,-0.003417969,0.9633789,-0.1899414,-0.2133789,-0.4443359
609,-0.1875,-0.375,-0.1875,-0.007324219,0.003417969,0.9711914,-0.1943359,-0.2133789,-0.4418945
611,0,0.0625,-0.125,0.01513672,0,0.9985352,-0.1943359,-0.2133789,-0.4418945
613,0,-0.0625,-0.3125,-0.02294922,0.007324219,0.9829102,-0.1943359,-0.2133789,-0.4418945
615,-0.125,0,-0.1875,-0.02294922,-0.003417969,0.9711914,-0.1943359,-0.2133789,-0.4418945
617,-0.125,0,-0.1875,0.01123047,-0.003417969,0.9907227,-0.1943359,-0.2133789,-0.4418945
619,0,-0.125,-0.1875,0,0.007324219,0.9829102,-0.1943359,-0.2133789,-0.4418945
621,0,-0.25,-0.1875,-0.01513672,0.003417969,0.9750977,-0.1943359,-0.2133789,-0.4418945
623,-0.0625,0.0625,0,-0.02294922,0.007324219,0.9829102,-0.1875,-0.2084961,-0.4467773
625,-0.125,0,-0.1875,-0.01123047,0.003417969,0.9750977,-0.1875,-0.2084961,-0.4467773
627,-0.125,0,-0.5625,-0.01904297,0.01513672,0.9907227,-0.1875,-0.2084961,-0.4467773
629,-0.0625,0,0,-0.01904297,0.01513672,0.9829102,-0.1943359,-0.2109375,-0.434082
631,-0.3125,0,-0.1875,-0.007324219,-0.003417969,0.9790039,-0.1943359,-0.2109375,-0.434082
633,-0.0625,0,-0.25,-0.01123047,0.01904297,0.9868164,-0.1943359,-0.2109375,-0.434082
635,0.0625,0.0625,-0.1875,-0.03076172,-0.01513672,0.9907227,-0.1967773,-0.2084961,-0.4418945
637,-0.0625,0,-0.4375,0,-0.003417969,0.9868164,-0.1967773,-0.2084961,-0.4418945
639,-0.125,-0.25,-0.1875,-0.003417969,0,0.9790039,-0.1967773,-0.2084961,-0.4418945
641,0.1875,-0.1875,-0.25,0,0.01123047,0.9790039,-0.1967773,-0.2084961,-0.4418945
643,0.1875,0,-0.0625,-0.01904297,0,0.9829102,-0.1967773,-0.2109375,-0.4365234
645,-0.375,0,-0.1875,-0.007324219,-0.003417969,0.9985352,-0.1967773,-0.2109375,-0.4365234
647,0.0625,0,0.0625,0.007324219,0,0.9790039,-0.1967773,-0.2109375,-0.4365234
649,0,0,-0.125,0.01513672,0.007324219,0.9985352,-0.1943359,-0.2177734,-0.4443359
651,0,-0.1875,-0.3125,-0.01904297,0.01904297,0.9633789,-0.1943359,-0.2177734,-0.4443359
653,-0.0625,0,-0.25,-0.003417969,0,0.9907227,-0.1943359,-0.2177734,-0.4443359
655,-0.1875,-0.1875,-0.125,-0.02294922,-0.003417969,0.9907227,-0.1899414,-0.2177734,-0.4394531
657,0,-0.0625,-0.1875,0.003417969,0,0.9868164,-0.1899414,-0.2177734,-0.4394531
659,-0.125,0,-0.1875,-0.01513672,0,0.9750977,-0.1899414,-0.2177734,-0.4394531
661,-0.125,0,-0.0625,-0.003417969,-0.007324219,0.9829102,-0.1992188,-0.2133789,-0.4287109
663,0,-0.0625,-0.0625,-0.01123047,0.01904297,0.9907227,-0.1992188,-0.2133789,-0.4287109
665,-0.1875,-0.0625,-0.1875,-0.007324219,0.007324219,0.9790039,-0.1992188,-0.2133789,-0.4287109
667,0.0625,-0.25,0,-0.01513672,0.007324219,0.9829102,-0.1992188,-0.2133789,-0.4287109
669,-0.125,0,-0.4375,-0.003417969,0,0.9907227,-0.1875,-0.2060547,-0.4467773
671,-0.0625,0,-0.125,0.007324219,0.02294922,0.9907227,-0.1875,-0.2060547,-0.4467773
673,-0.1875,0,-0.0625,-0.01904297,0.01123047,0.9829102,-0.1875,-0.2060547,-0.4467773
675,-0.0625,-0.125,-0.125,-0.02294922,-0.003417969,0.9829102,-0.1967773,-0.215332,-0.4394531
677,0,0,-0.375,-0.003417969,0.01513672,0.9633789,-0.1967773,-0.215332,-0.4394531
679,-0.0625,-0.1875,-0.125,0,0.003417969,0.9750977,-0.1967773,-0.215332,-0.4394531
681,-0.1875,0,-0.25,0.003417969,0.01513672,0.9711914,-0.1943359,-0.2133789,-0.4316406
683,0,-0.25,-0.4375,-0.007324219,-0.01513672,0.9907227,-0.1943359,-0.2133789,-0.4316406
685,-0.125,-0.0625,-0.25,-0.003417969,0.01513672,0.9711914,-0.1943359,-0.2133789,-0.4316406
687,-0.1875,-0.125,-0.125,-0.02685547,-0.003417969,0.9907227,-0.1943359,-0.2133789,-0.4316406
689,-0.0625,0.0625,-0.125,-0.01123047,0,1.001953,-0.1943359,-0.2133789,-0.4316406
691,0.0625,-0.25,-0.25,-0.007324219,0,0.9868164,-0.1943359,-0.2133789,-0.4316406
693,-0.1875,0,-0.3125,-0.01904297,0.01123047,0.9750977,-0.1943359,-0.2133789,-0.4316406
695,0,0.0625,-0.1875,0,0.01123047,0.9829102,-0.1875,-0.215332,-0.434082
697,-0.1875,0,0,0.01513672,0.01123047,0.9711914,-0.1875,-0.215332,-0.434082
699,-0.125,0,-0.125,-0.02294922,0.003417969,0.9829102,-0.1875,-0.215332,-0.434082
701,0,0,-0.0625,-0.01123047,-0.007324219,0.9829102,-0.1923828,-0.2060547,-0.4394531
703,-0.0625,-0.25,-0.1875,-0.003417969,0.01513672,0.9711914,-0.1923828,-0.2060547,-0.4394531
705,0,0,-0.0625,-0.02685547,-0.003417969,0.9868164,-0.1923828,-0.2060547,-0.4394531
707,-0.125,0,-0.25,0.007324219,-0.01513672,0.9790039,-0.1943359,-0.2060547,-0.4418945
709,-0.0625,-0.0625,-0.0625,-0.01513672,-0.003417969,0.9829102,-0.1943359,-0.2060547,-0.4418945
711,-0.125,-0.3125,-0.0625,0.003417969,0.01123047,0.9829102,-0.1943359,-0.2060547,-0.4418945
713,0,0.125,-0.0625,-0.01904297,-0.003417969,0.9711914,-0.1943359,-0.2060547,-0.4418945
716,-0.0625,-0.1875,0,0,0.01904297,0.9946289,-0.1923828,-0.2060547,-0.4316406
718,0.0625,0,0,-0.003417969,0,0.9594727,-0.1923828,-0.2060547,-0.4316406
720,0,-0.0625,-0.375,-0.01123047,-0.01123047,0.9711914,-0.1923828,-0.2060547,-0.4316406
722,-0.125,-0.0625,-0.375,-0.01904297,-0.007324219,0.9868164,-0.1943359,-0.2177734,-0.4365234
724,-0.125,0,-0.25,-0.02685547,-0.01513672,0.9711914,-0.1943359,-0.2177734,-0.4365234
726,0,-0.25,-0.0625,-0.003417969,0.01513672,0.9711914,-0.1943359,-0.2177734,-0.4365234
728,-0.25,-0.1875,-0.0625,-0.01904297,0.003417969,0.9946289,-0.1967773,-0.215332,-0.4394531
730,-0.25,0,-0.125,-0.007324219,0.003417969,0.9750977,-0.1967773,-0.215332,-0.4394531
732,-0.0625,-0.1875,-0.0625,-0.01513672,0.003417969,0.9711914,-0.1967773,-0.215332,-0.4394531
734,-0.125,-0.25,-0.125,-0.007324219,0.01123047,0.9868164,-0.1967773,-0.215332,-0.4394531
736,-0.1875,0.0625,-0.1875,-0.003417969,0,0.9946289,-0.1967773,-0.215332,-0.4394531
738,0,-0.0625,-0.125,0.01513672,0.01123047,0.9829102,-0.1967773,-0.215332,-0.4394531
740,-0.125,-0.3125,0,-0.003417969,-0.003417969,0.9750977,-0.1967773,-0.215332,-0.4394531
742,-0.0625,0.1875,-0.1875,0,0,0.9868164,-0.1899414,-0.2133789,-0.4418945
744,-0.125,-0.1875,-0.125,0,0.007324219,0.9868164,-0.1899414,-0.2133789,-0.4418945
746,-0.0625,-0.0625,-0.3125,0.003417969,0,0.9985352,-0.1899414,-0.2133789,-0.4418945
748,0.0625,0,-0.25,-0.007324219,0.007324219,0.9868164,-0.1967773,-0.2133789,-0.4521484
750,0,-0.3125,-0.0625,-0.007324219,0.01123047,0.9790039,-0.1967773,-0.2133789,-0.4521484
752,-0.125,0.0625,-0.25,-0.01123047,-0.003417969,0.9829102,-0.1967773,-0.2133789,-0.4521484
754,-0.0625,0,-0.25,-0.01904297,0,0.9790039,-0.1967773,-0.215332,-0.4418945
756,-0.375,-0.25,-0.1875,-0.01513672,0.01123047,0.9750977,-0.1967773,-0.215332,-0.4418945
758,-0.1875,-0.1875,-0.0625,-0.01123047,-0.01513672,0.9750977,-0.1967773,-0.215332,-0.4418945
760,-0.1875,-0.3125,0,-0.003417969,0,0.9711914,-0.1967773,-0.215332,-0.4418945
762,-0.125,0,-0.125,-0.01513672,0.003417969,1.005859,-0.1899414,-0.215332,-0.4394531
764,-0.125,0.125,0,-0.01123047,0,0.9985352,-0.1899414,-0.215332,-0.4394531
766,-0.0625,0,-0.1875,-0.01123047,0,0.9829102,-0.1899414,-0.215332,-0.4394531
768,-0.1875,0,-0.1875,-0.03466797,0.007324219,0.9711914,-0.1875,-0.2133789,-0.4287109
770,0.125,-0.1875,-0.0625,-0.007324219,0.003417969,0.9868164,-0.1875,-0.2133789,-0.4287109
772,-0.0625,0.0625,-0.3125,-0.007324219,-0.003417969,0.9790039,-0.1875,-0.2133789,-0.4287109
774,-0.1875,0,-0.125,-0.007324219,-0.007324219,1.001953,-0.1967773,-0.215332,-0.4316406
776,-0.375,0.1875,-0.3125,-0.01904297,-0.003417969,0.9907227,-0.1967773,-0.215332,-0.4316406
778,0,0,-0.25,-0.01123047,0.003417969,0.9790039,-0.1967773,-0.215332,-0.4316406
780,0,-0.0625,-0.125,-0.01123047,0.007324219,1.001953,-0.1967773,-0.215332,-0.4316406
782,-0.0625,-0.1875,-0.0625,0.003417969,0.003417969,0.9750977,-0.1967773,-0.215332,-0.4316406
784,0.0625,0,0,0.01513672,0.007324219,0.9790039,-0.1967773,-0.215332,-0.4316406
786,-0.125,0.0625,-0.3125,-0.01123047,0.007324219,0.9711914,-0.1967773,-0.215332,-0.4316406
788,-0.1875,-0.25,-0.1875,-0.03076172,0,0.9750977,-0.1992188,-0.2060547,-0.4467773
790,-0.0625,0,-0.4375,-0.003417969,0,0.9868164,-0.1992188,-0.2060547,-0.4467773
792,0,-0.1875,-0.125,-0.02685547,0,0.9750977,-0.1992188,-0.2060547,-0.4467773
794,-0.1875,0,0,0.003417969,0.007324219,0.9829102,-0.1943359,-0.2084961,-0.4287109
796,-0.1875,-0.1875,-0.0625,-0.03466797,0.01904297,0.9946289,-0.1943359,-0.2084961,-0.4287109
798,0.0625,0,-0.1875,-0.007324219,0.007324219,0.9790039,-0.1943359,-0.2084961,-0.4287109
800,0,-0.3125,-0.5,0,-0.01513672,0.9946289,-0.2016602,-0.215332,-0.449707
802,0,0.125,-0.125,-0.02685547,-0.01123047,0.9907227,-0.2016602,-0.215332,-0.449707
804,-0.0625,-0.0625,-0.4375,-0.01123047,-0.007324219,0.9711914,-0.2016602,-0.215332,-0.449707
806,0.0625,0,-0.25,-0.01513672,-0.007324219,0.9672852,-0.2016602,-0.215332,-0.449707
808,0,0,0,-0.007324219,-0.01513672,0.9829102,-0.2016602,-0.215332,-0.449707
810,0,-0.3125,0,-0.02685547,-0.01513672,0.9790039,-0.2016602,-0.215332,-0.449707
812,-0.125,-0.0625,-0.25,0,-0.01513672,0.9711914,-0.2016602,-0.215332,-0.449707
814,-0.125,-0.1875,-0.1875,-0.003417969,0,0.9829102,-0.2016602,-0.2016602,-0.4467773
816,-0.0625,-0.0625,-0.1875,-0.01513672,0,0.9790039,-0.2016602,-0.2016602,-0.4467773
818,-0.0625,0,-0.125,-0.01513672,-0.007324219,0.9711914,-0.2016602,-0.2016602,-0.4467773
820,-0.1875,0,-0.25,-0.01513672,-0.01123047,0.9750977,-0.2060547,-0.2060547,-0.4467773
822,0,0,-0.25,-0.01123047,0.02685547,0.9946289,-0.2060547,-0.2060547,-0.4467773
824,0,-0.0625,-0.0625,-0.003417969,0,0.9672852,-0.2060547,-0.2060547,-0.4467773
826,-0.125,0,-0.25,-0.007324219,0.01123047,0.9750977,-0.2036133,-0.2084961,-0.4545898
828,0.0625,0,-0.125,0,-0.003417969,0.9790039,-0.2036133,-0.2084961,-0.4545898
830,-0.125,-0.0625,-0.0625,-0.02685547,-0.003417969,0.9790039,-0.2036133,-0.2084961,-0.4545898
832,-0.0625,0.0625,-0.1875,-0.003417969,0.02294922,0.9985352,-0.2036133,-0.2084961,-0.4545898
834,0,0.125,0,0.003417969,0.007324219,0.9946289,-0.2084961,-0.2060547,-0.4365234
836,-0.1875,0.125,-0.0625,-0.01513672,-0.007324219,0.9750977,-0.2084961,-0.2060547,-0.4365234
838,-0.0625,-0.0625,-0.25,0.003417969,-0.003417969,0.9985352,-0.2084961,-0.2060547,-0.4365234
840,-0.125,-0.0625,-0.25,-0.01123047,-0.01513672,0.9907227,-0.2084961,-0.2016602,-0.449707
842,0.125,-0.125,-0.1875,-0.01513672,0.01513672,0.9985352,-0.2084961,-0.2016602,-0.449707
845,-0.0625,-0.1875,-0.1875,-0.03076172,0.01123047,0.9790039,-0.2084961,-0.2016602,-0.449707
847,-0.1875,-0.25,-0.25,-0.03857422,0,0.9829102,-0.2109375,-0.2060547,-0.4467773
849,0,0,-0.1875,-0.01904297,0,1.005859,-0.2109375,-0.2060547,-0.4467773
851,-0.1875,0,0,-0.003417969,-0.003417969,1.001953,-0.2109375,-0.2060547,-0.4467773
853,0,0,-0.125,-0.01123047,0.007324219,0.9711914,-0.2109375,-0.2060547,-0.4467773
855,-0.0625,0,-0.1875,-0.01513672,-0.003417969,0.9985352,-0.2109375,-0.2060547,-0.4467773
857,-0.0625,0,-0.125,0.007324219,0.003417969,0.9672852,-0.2109375,-0.2060547,-0.4467773
859,-0.125,0.0625,-0.125,-0.01123047,0,0.9907227,-0.2109375,-0.2060547,-0.4467773
861,-0.125,0,-0.1875,0,0.01123047,0.9829102,-0.2202148,-0.2084961,-0.4418945
863,0,-0.25,-0.0625,-0.01904297,0.01513672,0.9711914,-0.2202148,-0.2084961,-0.4418945
865,-0.1875,-0.0625,-0.1875,-0.01123047,0,0.9750977,-0.2202148,-0.2084961,-0.4418945
867,0,-0.25,-0.125,-0.01904297,0,0.9907227,-0.2202148,-0.2060547,-0.4570313
869,-0.0625,0,-0.25,-0.01123047,-0.01513672,0.9790039,-0.2202148,-0.2060547,-0.4570313
871,0,-0.0625,0,-0.01904297,0.003417969,0.9750977,-0.2202148,-0.2060547,-0.4570313
873,-0.0625,0.125,-0.25,-0.01513672,0.003417969,0.9829102,-0.2246094,-0.2041016,-0.4443359
875,0,0,-0.0625,-0.01123047,0.01904297,0.9790039,-0.2246094,-0.2041016,-0.4443359
877,-0.1875,0.0625,-0.125,-0.01904297,0,0.9790039,-0.2246094,-0.2041016,-0.4443359
879,0,0,-0.1875,-0.01123047,-0.01513672,0.9750977,-0.2246094,-0.2041016,-0.4443359
881,-0.0625,0.0625,-0.25,0.003417969,-0.003417969,0.9868164,-0.2202148,-0.1992188,-0.4521484
883,-0.0625,-0.1875,-0.4375,-0.02685547,0,0.9711914,-0.2202148,-0.1992188,-0.4521484
885,-0.0625,-0.1875,-0.1875,0,-0.003417969,0.9594727,-0.2202148,-0.1992188,-0.4521484
887,-0.125,0,-0.25,-0.01513672,-0.003417969,0.9790039,-0.2109375,-0.1992188,-0.449707
889,0.0625,-0.0625,-0.4375,-0.01904297,0,0.9711914,-0.2109375,-0.1992188,-0.449707
891,-0.125,-0.25,-0.25,-0.007324219,0,0.9907227,-0.2109375,-0.1992188,-0.449707
893,0,-0.0625,-0.0625,0,-0.01513672,0.9750977,-0.222168,-0.1948242,-0.4521484
895,0,-0.125,-0.0625,-0.003417969,-0.003417969,0.9829102,-0.222168,-0.1948242,-0.4521484
897,0,-0.0625,-0.25,0.007324219,0,0.9868164,-0.222168,-0.1948242,-0.4521484
899,0,-0.0625,-0.125,-0.02685547,0,0.9790039,-0.222168,-0.1948242,-0.4521484
901,0,0.0625,-0.25,-0.01123047,0.01513672,0.9868164,-0.222168,-0.1948242,-0.4521484
903,-0.125,0.0625,0,-0.04248047,0.003417969,0.9829102,-0.222168,-0.1948242,-0.4521484
905,-0.0625,-0.25,-0.3125,-0.01904297,0,0.9711914,-0.222168,-0.1948242,-0.4521484
907,-0.0625,-0.1875,-0.1875,-0.02294922,0.003417969,0.9907227,-0.222168,-0.2060547,-0.4443359
909,0,0,-0.25,-0.01123047,0,1.001953,-0.222168,-0.2060547,-0.4443359
911,-0.125,-0.3125,-0.125,0,-0.003417969,0.9790039,-0.222168,-0.2060547,-0.4443359
913,-0.0625,0.0625,0.0625,-0.01513672,0.003417969,0.9829102,-0.2246094,-0.2084961,-0.4467773
915,0,0,-0.0625,-0.007324219,0.01513672,0.9985352,-0.2246094,-0.2084961,-0.4467773
917,0,0,-0.0625,-0.03076172,-0.003417969,0.9868164,-0.2246094,-0.2084961,-0.4467773
919,-0.1875,0,-0.0625,-0.02685547,-0.01123047,0.9711914,-0.2246094,-0.1992188,-0.449707
921,0,0.125,-0.125,-0.01513672,0.01123047,0.9829102,-0.2246094,-0.1992188,-0.449707
923,0,-0.25,-0.25,-0.01123047,-0.01513672,0.9790039,-0.2246094,-0.1992188,-0.449707
925,0.0625,-0.1875,-0.1875,-0.03466797,0.07763672,0.9868164,-0.2246094,-0.1992188,-0.449707
927,-0.125,0,-0.1875,0.003417969,0,0.9868164,-0.2270508,-0.1948242,-0.4570313
929,0,-0.25,-0.125,0,0.01123047,0.9907227,-0.2270508,-0.1948242,-0.4570313
931,0.0625,-0.1875,-0.0625,-0.01904297,0.003417969,0.9985352,-0.2270508,-0.1948242,-0.4570313
933,0,-0.1875,-0.125,-0.003417969,0.03076172,0.9985352,-0.2270508,-0.1992188,-0.4521484
935,0,0,-0.1875,-0.003417969,0.003417969,1.013672,-0.2270508,-0.1992188,-0.4521484
937,-0.125,-0.25,-0.125,-0.01123047,0.003417969,0.9829102,-0.2270508,-0.1992188,-0.4521484
939,-0.125,0,-0.0625,-0.01123047,0.01513672,1.001953,-0.2202148,-0.2109375,-0.449707
941,0,0.125,-0.1875,0,-0.007324219,0.9790039,-0.2202148,-0.2109375,-0.449707
943,-0.0625,-0.1875,-0.0625,-0.003417969,0.01513672,0.9907227,-0.2202148,-0.2109375,-0.449707
945,0.125,0,-0.0625,-0.01513672,-0.01513672,0.9633789,-0.2109375,-0.2041016,-0.4545898
947,-0.0625,0,-0.125,0.01123047,-0.007324219,0.9594727,-0.2109375,-0.2041016,-0.4545898
949,0,-0.1875,-0.1875,-0.007324219,-0.01123047,0.9790039,-0.2109375,-0.2041016,-0.4545898
951,0,-0.0625,-0.0625,-0.01123047,0.01123047,0.9946289,-0.2109375,-0.2041016,-0.4545898
953,0,-0.0625,-0.1875,-0.03076172,0,0.9868164,-0.2202148,-0.1948242,-0.4418945
955,-0.0625,-0.25,-0.1875,0,-0.01513672,0.9946289,-0.2202148,-0.1948242,-0.4418945
957,-0.3125,-0.0625,-0.125,-0.01513672,0.003417969,0.9711914,-0.2202148,-0.1948242,-0.4418945
959,-0.1875,-0.0625,-0.4375,-0.007324219,0.01123047,0.9946289,-0.2246094,-0.2016602,-0.4599609
961,-0.125,-0.0625,-0.125,0.003417969,-0.01513672,0.9868164,-0.2246094,-0.2016602,-0.4599609
963,0,0,-0.0625,-0.01513672,-0.01513672,0.9907227,-0.2246094,-0.2016602,-0.4599609
965,-0.0625,0,-0.1875,-0.007324219,-0.01513672,0.9829102,-0.2319336,-0.1899414,-0.4467773
967,-0.125,0,-0.4375,-0.02685547,-0.01904297,0.9750977,-0.2319336,-0.1899414,-0.4467773
969,-0.1875,-0.25,-0.125,-0.01513672,0,0.9868164,-0.2319336,-0.1899414,-0.4467773
971,-0.0625,0,-0.1875,-0.02685547,0.007324219,1.001953,-0.2319336,-0.1899414,-0.4467773
974,-0.125,0,-0.125,-0.02294922,-0.01123047,0.9868164,-0.2319336,-0.1899414,-0.4467773
976,-0.0625,-0.25,-0.1875,-0.01123047,0.01123047,0.9946289,-0.2319336,-0.1899414,-0.4467773
978,0,-0.3125,-0.125,0,0,0.9711914,-0.2319336,-0.1899414,-0.4467773
980,-0.0625,-0.0625,-0.1875,-0.007324219,0.01513672,0.9829102,-0.2246094,-0.1992188,-0.4443359
982,0,0,-0.1875,-0.02294922,0.01123047,0.9985352,-0.2246094,-0.1992188,-0.4443359
984,-0.1875,0,-0.0625,-0.007324219,-0.01904297,0.9829102,-0.2246094,-0.1992188,-0.4443359
986,-0.125,0,-0.0625,-0.003417969,0,0.9790039,-0.2246094,-0.1899414,-0.4443359
988,-0.0625,-0.0625,-0.0625,0.003417969,0.003417969,0.9672852,-0.2246094,-0.1899414,-0.4443359
990,-0.0625,0.0625,-0.0625,-0.01123047,0.01513672,0.9829102,-0.2246094,-0.1899414,-0.4443359
992,0,0,-0.3125,-0.01123047,0.02685547,0.9633789,-0.2412109,-0.2041016,-0.4394531
994,-0.0625,-0.1875,-0.125,0,0.003417969,0.9750977,-0.2412109,-0.2041016,-0.4394531
996,0,-0.25,-0.0625,-0.01513672,-0.01513672,0.9750977,-0.2412109,-0.2041016,-0.4394531
998,-0.125,0.0625,-0.0625,-0.01513672,0.007324219,0.9750977,-0.2412109,-0.2041016,-0.4394531
1000,-0.0625,-0.25,-0.125,-0.003417969,-0.003417969,0.9829102,-0.2294922,-0.1831055,-0.4521484
1002,0,-0.125,-0.25,0.01123047,0.003417969,0.9868164,-0.2294922,-0.1831055,-0.4521484
1004,-0.0625,-0.0625,-0.1875,-0.01123047,0,0.9711914,-0.2294922,-0.1831055,-0.4521484
1006,-0.0625,-0.0625,-0.125,0,0.003417969,0.9985352,-0.2412109,-0.1948242,-0.4467773
1008,-0.0625,0.0625,-0.1875,0.003417969,0.01513672,1.001953,-0.2412109,-0.1948242,-0.4467773
1010,-0.125,0,-0.3125,-0.01904297,0.003417969,0.9985352,-0.2412109,-0.1948242,-0.4467773
1012,0,0,-0.125,-0.01513672,0,0.9672852,-0.2294922,-0.1831055,-0.449707
1014,-0.125,0,-0.125,-0.01123047,0.01513672,0.9711914,-0.2294922,-0.1831055,-0.449707
1016,0.0625,0,-0.25,-0.02685547,0.003417969,0.9868164,-0.2294922,-0.1831055,-0.449707
1018,0,-0.1875,-0.125,-0.01123047,-0.01513672,0.9829102,-0.2294922,-0.1831055,-0.449707
1020,-0.125,0,-0.0625,-0.007324219,0.007324219,0.9750977,-0.2294922,-0.1831055,-0.449707
1022,-0.3125,0,-0.125,-0.01123047,0,0.9711914,-0.2294922,-0.1831055,-0.449707
1024,-0.1875,0.125,-0.1875,-0.01904297,0.02294922,0.9711914,-0.2294922,-0.1831055,-0.449707
1026,0,0,-0.125,-0.01904297,0.003417969,0.9711914,-0.2338867,-0.1879883,-0.449707
1028,0,-0.3125,-0.0625,0.007324219,0.007324219,0.9711914,-0.2338867,-0.1879883,-0.449707
1030,0,0,-0.0625,-0.003417969,-0.003417969,1.001953,-0.2338867,-0.1879883,-0.449707
1032,-0.0625,0,-0.125,-0.007324219,0.003417969,0.9907227,-0.2294922,-0.1923828,-0.4365234
1034,-0.0625,-0.0625,-0.25,-0.007324219,0,0.9750977,-0.2294922,-0.1923828,-0.4365234
1036,-0.0625,-0.3125,-0.125,-0.02685547,0.01123047,0.9711914,-0.2294922,-0.1923828,-0.4365234
1038,-0.1875,0.0625,0,-0.01513672,0.01123047,0.9790039,-0.2387695,-0.1855469,-0.4467773
1040,-0.0625,0,-0.1875,0,-0.007324219,0.9633789,-0.2387695,-0.1855469,-0.4467773
1042,-0.1875,-0.0625,-0.0625,-0.02294922,0.007324219,0.9711914,-0.2387695,-0.1855469,-0.4467773
1044,0,-0.125,-0.0625,-0.01123047,0.01123047,0.9907227,-0.2387695,-0.1855469,-0.4467773
1046,0,-0.0625,-0.25,0.003417969,0.007324219,0.9829102,-0.2338867,-0.1879883,-0.4443359
1048,-0.125,-0.0625,-0.0625,-0.01904297,0.01123047,0.9829102,-0.2338867,-0.1879883,-0.4443359
1050,-0.125,0.0625,0.0625,-0.01513672,-0.01123047,0.9985352,-0.2338867,-0.1879883,-0.4443359
1052,0,-0.0625,-0.25,-0.003417969,-0.003417969,0.9829102,-0.2412109,-0.1948242,-0.4521484
1054,-0.125,0,-0.0625,0.007324219,0.003417969,0.9946289,-0.2412109,-0.1948242,-0.4521484
1056,0,0,-0.0625,-0.01904297,-0.003417969,0.9790039,-0.2412109,-0.1948242,-0.4521484
1058,0.0625,0,-0.25,-0.03466797,0,0.9633789,-0.2363281,-0.1948242,-0.4467773
1060,0,0,-0.1875,-0.02685547,0.02294922,0.9790039,-0.2363281,-0.1948242,-0.4467773
1062,-0.0625,-0.0625,0,-0.01513672,-0.007324219,0.9829102,-0.2363281,-0.1948242,-0.4467773
1064,-0.0625,-0.0625,-0.125,-0.01123047,-0.01513672,0.9946289,-0.2363281,-0.1948242,-0.4467773
1066,-0.0625,0,-0.125,0.007324219,0.01513672,0.9829102,-0.2363281,-0.1948242,-0.4467773
1068,0,0,-0.3125,-0.02685547,0.003417969,0.9711914,-0.2363281,-0.1948242,-0.4467773
1070,0,-0.0625,-0.0625,-0.01513672,-0.01513672,0.9868164,-0.2363281,-0.1948242,-0.4467773
1072,0,-0.0625,-0.1875,-0.007324219,0.01904297,0.9711914,-0.2270508,-0.1762695,-0.4443359
1074,-0.1875,-0.0625,0,-0.01513672,-0.01904297,0.9946289,-0.2270508,-0.1762695,-0.4443359
1076,0,-0.25,-0.125,-0.01904297,0.01123047,0.9829102,-0.2270508,-0.1762695,-0.4443359
1078,-0.0625,0.0625,-0.125,0.003417969,-0.007324219,0.9868164,-0.2363281,-0.1923828,-0.4418945
1080,-0.0625,-0.0625,-0.0625,-0.01513672,0,0.9907227,-0.2363281,-0.1923828,-0.4418945
1082,0,0.0625,-0.25,-0.003417969,0.003417969,0.9672852,-0.2363281,-0.1923828,-0.4418945
1084,0,0,-0.125,-0.003417969,0,0.9790039,-0.2319336,-0.1855469,-0.4394531
1086,-0.125,0,-0.125,0,-0.003417969,0.9829102,-0.2319336,-0.1855469,-0.4394531
1088,0.0625,-0.25,-0.0625,-0.007324219,0.01123047,0.9985352,-0.2319336,-0.1855469,-0.4394531
1090,-0.0625,0.125,-0.125,-0.01123047,-0.003417969,0.9633789,-0.2319336,-0.1855469,-0.4394531
1092,0.0625,-0.0625,-0.1875,-0.01513672,0.007324219,0.9711914,-0.2319336,-0.1855469,-0.4394531
1094,-0.0625,-0.0625,-0.25,-0.01904297,0.007324219,0.9750977,-0.2319336,-0.1855469,-0.4394531
1096,-0.0625,0,-0.125,-0.01123047,0,0.9711914,-0.2319336,-0.1855469,-0.4394531
1098,0,0,-0.0625,-0.01123047,0,0.9711914,-0.2338867,-0.1879883,-0.4467773
1100,-0.125,-0.0625,-0.25,0.007324219,-0.01513672,0.9829102,-0.2338867,-0.1879883,-0.4467773
1104,0,-0.0625,0,-0.01513672,0.01123047,0.9985352,-0.2338867,-0.1879883,-0.4467773
1106,-0.1875,0,-0.4375,0,0.003417969,0.9946289,-0.2431641,-0.1831055,-0.4467773
1108,0,-0.1875,-0.1875,-0.01904297,0,0.9829102,-0.2431641,-0.1831055,-0.4467773
1110,0,0,-0.125,-0.01513672,-0.01513672,1.001953,-0.2431641,-0.1831055,-0.4467773
1112,-0.125,-0.1875,-0.125,-0.01513672,0.003417969,0.9868164,-0.2363281,-0.1811523,-0.4545898
1114,-0.125,-0.0625,-0.1875,-0.007324219,0.007324219,0.9868164,-0.2363281,-0.1811523,-0.4545898
1116,-0.125,0.0625,-0.0625,-0.01513672,0.01513672,0.9946289,-0.2363281,-0.1811523,-0.4545898
1118,0,0.125,-0.125,0.003417969,-0.003417969,1.009766,-0.2363281,-0.1811523,-0.4545898
1120,0.0625,0,-0.1875,0.007324219,0.01123047,0.9907227,-0.2338867,-0.1879883,-0.4443359
1122,-0.125,-0.0625,-0.0625,-0.007324219,-0.01513672,0.9985352,-0.2338867,-0.1879883,-0.4443359
1124,-0.25,0,0,-0.01904297,0,0.9907227,-0.2338867,-0.1879883,-0.4443359
1126,-0.0625,0,-0.3125,-0.01513672,-0.01123047,0.9633789,-0.2319336,-0.1831055,-0.4365234
1128,-0.125,0.125,-0.0625,-0.03076172,-0.007324219,0.9907227,-0.2319336,-0.1831055,-0.4365234
1130,-0.0625,-0.1875,-0.25,-0.02685547,0,0.9985352,-0.2319336,-0.1831055,-0.4365234
1132,-0.1875,0,-0.3125,-0.02685547,0.007324219,0.9946289,-0.2319336,-0.1923828,-0.4467773
1134,0,0,-0.4375,-0.02685547,-0.01123047,0.9790039,-0.2319336,-0.1923828,-0.4467773
1136,-0.0625,-0.0625,0,-0.02294922,0.003417969,0.9907227,-0.2319336,-0.1923828,-0.4467773
1138,-0.125,-0.0625,-0.125,-0.02294922,0.003417969,0.9790039,-0.2319336,-0.1923828,-0.4467773
1140,-0.0625,0.0625,-0.0625,-0.003417969,0.003417969,0.9868164,-0.2319336,-0.1923828,-0.4467773
1142,-0.0625,-0.0625,-0.1875,-0.03076172,-0.01123047,0.9868164,-0.2319336,-0.1923828,-0.4467773
1144,0,-0.1875,-0.1875,-0.01904297,0.007324219,0.9946289,-0.2319336,-0.1923828,-0.4467773
1146,-0.125,-0.0625,-0.0625,-0.03076172,0,0.9750977,-0.2363281,-0.1811523,-0.4599609
1148,0,0,-0.125,-0.003417969,-0.007324219,0.9907227,-0.2363281,-0.1811523,-0.4599609
1150,0,-0.25,-0.125,-0.01513672,0.007324219,0.9868164,-0.2363281,-0.1811523,-0.4599609
1152,-0.125,0,-0.125,-0.01513672,0,0.9633789,-0.2338867,-0.1879883,-0.4443359
1154,-0.375,0,-0.0625,-0.01513672,-0.007324219,0.9672852,-0.2338867,-0.1879883,-0.4443359
1156,0.0625,-0.25,-0.3125,-0.01123047,0.007324219,0.9985352,-0.2338867,-0.1879883,-0.4443359
1158,-0.1875,-0.1875,-0.125,-0.007324219,-0.007324219,0.9868164,-0.2431641,-0.1831055,-0.4467773
1160,-0.125,0,-0.1875,0.003417969,-0.007324219,0.9829102,-0.2431641,-0.1831055,-0.4467773
1162,0.0625,-0.1875,-0.0625,0.01513672,-0.01904297,0.9829102,-0.2431641,-0.1831055,-0.4467773
1164,0.0625,0,-0.125,-0.01904297,-0.003417969,0.9985352,-0.2431641,-0.1831055,-0.4467773
1166,-0.125,0,-0.1875,-0.01513672,0.007324219,0.9790039,-0.2294922,-0.1879883,-0.4467773
1168,-0.0625,-0.0625,-0.125,-0.007324219,0.003417969,0.9790039,-0.2294922,-0.1879883,-0.4467773
1170,0,0,-0.0625,-0.007324219,0.01123047,0.9829102,-0.2294922,-0.1879883,-0.4467773
1172,-0.0625,-0.25,-0.25,-0.01513672,-0.01513672,1.001953,-0.2338867,-0.1787109,-0.4418945
1174,-0.125,0,-0.1875,-0.007324219,0.003417969,0.9868164,-0.2338867,-0.1787109,-0.4418945
1176,-0.0625,0,-0.125,0.007324219,0,0.9907227,-0.2338867,-0.1787109,-0.4418945
1178,0,-0.0625,0,-0.01123047,0.003417969,0.9829102,-0.2363281,-0.1879883,-0.4394531
1180,-0.0625,0.0625,-0.1875,-0.01123047,0.007324219,0.9907227,-0.2363281,-0.1879883,-0.4394531
1182,0,0,-0.25,-0.01904297,-0.003417969,0.9868164,-0.2363281,-0.1879883,-0.4394531
1184,-0.125,0,-0.1875,-0.01513672,-0.01513672,0.9985352,-0.2363281,-0.1879883,-0.4394531
1186,-0.0625,0,-0.125,-0.007324219,0.01123047,0.9750977,-0.2363281,-0.1879883,-0.4394531
1188,0,-0.0625,-0.125,-0.01123047,0.003417969,0.9868164,-0.2363281,-0.1879883,-0.4394531
1190,0,0,-0.1875,-0.02685547,-0.01513672,0.9946289,-0.2363281,-0.1879883,-0.4394531
1192,0.0625,0,-0.0625,-0.01904297,0.01904297,1.001953,-0.2270508,-0.1787109,-0.4394531
1194,-0.125,0,-0.125,-0.007324219,0.003417969,0.9907227,-0.2270508,-0.1787109,-0.4394531
1196,0,0.25,0,-0.01904297,0.007324219,0.9946289,-0.2270508,-0.1787109,-0.4394531
1198,-0.0625,-0.1875,-0.25,-0.01123047,0.003417969,0.9750977,-0.2431641,-0.1899414,-0.4443359
1200,-0.0625,-0.0625,-0.1875,-0.02294922,-0.007324219,0.9868164,-0.2431641,-0.1899414,-0.4443359
1202,-0.0625,0,-0.125,-0.01904297,0.003417969,0.9985352,-0.2431641,-0.1899414,-0.4443359
1204,0,0,-0.125,-0.01123047,-0.007324219,0.9868164,-0.2431641,-0.1899414,-0.4443359
1206,-0.0625,-0.3125,-0.125,-0.01513672,0.01513672,1.001953,-0.2431641,-0.1899414,-0.4443359
1208,-0.1875,-0.1875,-0.125,-0.007324219,0.007324219,0.9907227,-0.2431641,-0.1899414,-0.4443359
1210,0.1875,-0.1875,-0.125,-0.03466797,0.007324219,0.9868164,-0.2431641,-0.1899414,-0.4443359
1212,-0.0625,0,-0.25,-0.01123047,-0.01513672,0.9985352,-0.2363281,-0.1811523,-0.449707
1214,0.0625,-0.3125,-0.25,-0.03076172,0,0.9907227,-0.2363281,-0.1811523,-0.449707
1216,-0.125,-0.1875,-0.125,-0.01904297,0.003417969,0.9672852,-0.2363281,-0.1811523,-0.449707
1218,-0.0625,-0.1875,-0.125,-0.003417969,0.003417969,0.9868164,-0.2412109,-0.1855469,-0.4467773
1220,0,-0.0625,-0.0625,-0.007324219,0.01123047,0.9790039,-0.2412109,-0.1855469,-0.4467773
1222,-0.125,-0.0625,-0.1875,0.01513672,0,0.9711914,-0.2412109,-0.1855469,-0.4467773
1224,-0.0625,0,-0.1875,-0.003417969,0.003417969,0.9829102,-0.2363281,-0.1899414,-0.4443359
1226,0,-0.0625,-0.0625,-0.01123047,0.007324219,0.9672852,-0.2363281,-0.1899414,-0.4443359
1228,-0.125,0,-0.1875,-0.01904297,0.007324219,0.9711914,-0.2363281,-0.1899414,-0.4443359
1230,0.125,0.0625,0,-0.003417969,0.007324219,0.9985352,-0.2387695,-0.1831055,-0.4521484
1233,-0.0625,-0.0625,-0.25,-0.003417969,0.01904297,0.9946289,-0.2387695,-0.1831055,-0.4521484
1235,-0.0625,-0.0625,-0.1875,-0.007324219,0,0.9985352,-0.2387695,-0.1831055,-0.4521484
1237,0,-0.0625,-0.0625,-0.01123047,0.003417969,0.9985352,-0.2387695,-0.1831055,-0.4521484
1239,-0.25,0,-0.0625,0.01123047,0,0.9829102,-0.2338867,-0.1899414,-0.4443359
1241,-0.0625,-0.0625,-0.3125,0.01513672,-0.007324219,0.9672852,-0.2338867,-0.1899414,-0.4443359
1243,-0.25,-0.1875,0,-0.003417969,0.01123047,0.9750977,-0.2338867,-0.1899414,-0.4443359
1245,-0.0625,0,-0.125,-0.007324219,0.02294922,0.9750977,-0.2294922,-0.1879883,-0.4570313
1247,-0.0625,0,-0.25,-0.007324219,-0.01123047,0.9594727,-0.2294922,-0.1879883,-0.4570313
1249,-0.0625,0,-0.125,-0.01904297,-0.007324219,0.9907227,-0.2294922,-0.1879883,-0.4570313
1251,-0.1875,-0.0625,-0.25,-0.02294922,-0.007324219,0.9985352,-0.2319336,-0.1899414,-0.4394531
1253,0,0,-0.125,-0.02294922,-0.007324219,0.9868164,-0.2319336,-0.1899414,-0.4394531
1255,-0.0625,0.125,-0.0625,-0.01513672,0.003417969,0.9711914,-0.2319336,-0.1899414,-0.4394531
1257,-0.1875,0,-0.125,-0.01904297,0.01123047,0.9868164,-0.2319336,-0.1899414,-0.4394531
1259,0.0625,0,-0.0625,-0.003417969,0.01904297,0.9711914,-0.2319336,-0.1899414,-0.4394531
1261,-0.375,0.0625,-0.0625,-0.003417969,0.01123047,0.9946289,-0.2319336,-0.1899414,-0.4394531
1263,-0.125,-0.0625,-0.125,-0.01123047,-0.003417969,0.9946289,-0.2319336,-0.1899414,-0.4394531
1265,0,-0.1875,-0.0625,-0.007324219,-0.007324219,0.9946289,-0.2319336,-0.1787109,-0.449707
1267,0,-0.25,-0.125,-0.01513672,0.007324219,0.9868164,-0.2319336,-0.1787109,-0.449707
1269,-0.0625,-0.0625,-0.25,-0.003417969,-0.003417969,0.9868164,-0.2319336,-0.1787109,-0.449707
1271,0,-0.0625,0,-0.007324219,-0.01513672,0.9594727,-0.2338867,-0.1879883,-0.4443359
1273,-0.125,-0.1875,-0.3125,-0.003417969,-0.007324219,0.9790039,-0.2338867,-0.1879883,-0.4443359
1275,-0.125,0,-0.1875,-0.02685547,-0.01513672,1.009766,-0.2338867,-0.1879883,-0.4443359
1277,0.0625,0,-0.1875,-0.02685547,-0.01123047,0.9633789,-0.2363281,-0.1948242,-0.449707
1279,-0.125,-0.1875,-0.0625,-0.01513672,0.01513672,1.005859,-0.2363281,-0.1948242,-0.449707
1281,-0.125,0.0625,-0.0625,0.003417969,0.01904297,0.9985352,-0.2363281,-0.1948242,-0.449707
1283,-0.0625,0.0625,-0.125,-0.02294922,-0.003417969,0.9790039,-0.2363281,-0.1948242,-0.449707
1285,-0.0625,0,-0.125,-0.02294922,-0.003417969,0.9985352,-0.2294922,-0.171875,-0.4394531
1287,-0.3125,-0.1875,-0.0625,-0.02685547,0.003417969,0.9790039,-0.2294922,-0.171875,-0.4394531
1289,-0.125,-0.1875,-0.125,-0.01904297,0.003417969,0.9907227,-0.2294922,-0.171875,-0.4394531
1291,0,0,-0.0625,-0.007324219,0.007324219,0.9750977,-0.2338867,-0.1899414,-0.449707
1293,-0.0625,0,0,-0.003417969,0.02685547,0.9868164,-0.2338867,-0.1899414,-0.449707
1295,0,0,-0.125,0.01513672,-0.01123047,0.9750977,-0.2338867,-0.1899414,-0.449707
1297,-0.1875,-0.0625,-0.0625,-0.01513672,0,0.9907227,-0.2294922,-0.1787109,-0.4467773
1299,-0.0625,0,-0.0625,-0.01904297,0,0.9790039,-0.2294922,-0.1787109,-0.4467773
1301,0,0,-0.0625,-0.007324219,0.007324219,0.9985352,-0.2294922,-0.1787109,-0.4467773
1303,-0.125,0,-0.1875,-0.01513672,0,0.9633789,-0.2294922,-0.1787109,-0.4467773
1305,-0.375,0.0625,-0.1875,-0.01513672,-0.003417969,0.9829102,-0.2294922,-0.1787109,-0.4467773
1307,-0.1875,0.0625,-0.25,-0.02294922,0.02294922,0.9711914,-0.2294922,-0.1787109,-0.4467773
1309,-0.125,0,-0.25,-0.007324219,0.003417969,0.9868164,-0.2294922,-0.1787109,-0.4467773
1311,0,-0.1875,-0.0625,-0.03076172,-0.02294922,0.9868164,-0.2270508,-0.1855469,-0.4467773
1313,-0.0625,0,-0.1875,-0.007324219,-0.007324219,0.9946289,-0.2270508,-0.1855469,-0.4467773
1315,0,-0.0625,-0.4375,0,0.007324219,0.9868164,-0.2270508,-0.1855469,-0.4467773
1317,-0.1875,-0.0625,-0.125,-0.01123047,-0.003417969,0.9829102,-0.2338867,-0.1831055,-0.4570313
1319,-0.125,-0.125,-0.25,-0.02294922,0.01513672,0.9868164,-0.2338867,-0.1831055,-0.4570313
1321,-0.0625,0,-0.3125,-0.003417969,0.003417969,0.9711914,-0.2338867,-0.1831055,-0.4570313
1323,0,0,-0.0625,-0.02294922,0.003417969,0.9672852,-0.2319336,-0.1879883,-0.4521484
1325,0,-0.1875,-0.3125,0.003417969,-0.003417969,0.9829102,-0.2319336,-0.1879883,-0.4521484
1327,-0.0625,0,0,0.007324219,0.007324219,0.9790039,-0.2319336,-0.1879883,-0.4521484
1329,0,0,-0.3125,-0.007324219,0.01123047,0.9633789,-0.2319336,-0.1879883,-0.4521484
1331,0.125,-0.1875,-0.0625,0.01123047,-0.007324219,0.9868164,-0.2338867,-0.1811523,-0.4467773
1333,-0.1875,0,-0.1875,-0.01513672,0,0.9711914,-0.2338867,-0.1811523,-0.4467773
1335,-0.0625,0.0625,-0.125,-0.01904297,0.003417969,0.9907227,-0.2338867,-0.1811523,-0.4467773
1337,0,-0.0625,-0.3125,-0.02294922,0.01123047,0.9672852,-0.2294922,-0.1762695,-0.4365234
1339,0,-0.1875,0,-0.003417969,0.01513672,0.9750977,-0.2294922,-0.1762695,-0.4365234
1341,-0.0625,-0.125,-0.125,-0.01904297,0,0.9711914,-0.2294922,-0.1762695,-0.4365234
1343,-0.375,-0.0625,-0.0625,-0.02685547,0.007324219,1.001953,-0.2319336,-0.1923828,-0.4467773
1345,-0.0625,0,-0.25,0,0.007324219,0.9946289,-0.2319336,-0.1923828,-0.4467773
1347,-0.125,0.125,-0.25,-0.01904297,0,0.9868164,-0.2319336,-0.1923828,-0.4467773
1349,0,-0.25,-0.25,0.003417969,-0.007324219,0.9672852,-0.2319336,-0.1923828,-0.4467773
1351,0,0,0,0,0,0.9711914,-0.2319336,-0.1923828,-0.4467773
1353,-0.125,0,0,-0.01904297,0.01513672,0.9907227,-0.2319336,-0.1923828,-0.4467773
1355,-0.125,0,-0.25,-0.003417969,0,0.9868164,-0.2319336,-0.1923828,-0.4467773
1357,-0.125,0,-0.125,-0.007324219,0,0.9946289,-0.2319336,-0.1899414,-0.449707
1359,0,-0.3125,-0.25,-0.02685547,0,0.9790039,-0.2319336,-0.1899414,-0.449707
1362,0,-0.1875,-0.125,-0.01513672,-0.01123047,0.9829102,-0.2319336,-0.1899414,-0.449707
1364,-0.125,0,-0.375,-0.02294922,0.003417969,0.9907227,-0.2319336,-0.1879883,-0.4467773
1366,-0.0625,-0.125,-0.125,-0.007324219,0,0.9750977,-0.2319336,-0.1879883,-0.4467773
1368,-0.375,0,-0.0625,-0.01513672,-0.003417969,0.9985352,-0.2319336,-0.1879883,-0.4467773
1370,0,0.0625,-0.0625,0,-0.003417969,0.9790039,-0.2270508,-0.1948242,-0.4545898
1372,0,-0.0625,-0.125,-0.01123047,0,0.9829102,-0.2270508,-0.1948242,-0.4545898
1374,-0.0625,0.125,-0.1875,-0.02294922,-0.003417969,0.9907227,-0.2270508,-0.1948242,-0.4545898
1376,-0.0625,0,-0.3125,-0.003417969,0.01123047,0.9868164,-0.2270508,-0.1948242,-0.4545898
1378,0.3125,0,-0.375,-0.003417969,-0.007324219,0.9790039,-0.2246094,-0.1831055,-0.4467773
1380,-0.125,-0.0625,-0.25,-0.01123047,0.01904297,0.9790039,-0.2246094,-0.1831055,-0.4467773
1382,-0.125,-0.0625,-0.1875,-0.003417969,-0.003417969,0.9907227,-0.2246094,-0.1831055,-0.4467773
1384,-0.0625,-0.25,-0.125,-0.01904297,0.003417969,0.9750977,-0.2338867,-0.1831055,-0.4394531
1386,0,0,-0.3125,-0.01123047,-0.01513672,0.9829102,-0.2338867,-0.1831055,-0.4394531
1388,-0.3125,0,-0.4375,-0.03076172,-0.007324219,0.9750977,-0.2338867,-0.1831055,-0.4394531
1390,0,0.1875,-0.125,-0.02294922,-0.003417969,0.9868164,-0.2363281,-0.1899414,-0.4443359
1392,-0.125,0,-0.25,0.003417969,-0.01904297,0.9711914,-0.2363281,-0.1899414,-0.4443359
1394,-0.0625,0,-0.3125,-0.01904297,0.007324219,0.9829102,-0.2363281,-0.1899414,-0.4443359
1396,-0.3125,-0.0625,-0.125,0.003417969,0.01123047,0.9790039,-0.2319336,-0.1972656,-0.449707
1398,0,0.0625,-0.25,-0.01904297,0.01123047,0.9985352,-0.2319336,-0.1972656,-0.449707
1400,0,-0.125,-0.125,-0.01904297,0,0.9711914,-0.2319336,-0.1972656,-0.449707
1402,-0.3125,-0.1875,-0.0625,0,-0.003417969,0.9672852,-0.2319336,-0.1972656,-0.449707
1404,-0.1875,0,-0.3125,-0.01123047,0,0.9946289,-0.2338867,-0.1948242,-0.4545898
1406,0.0625,-0.0625,-0.1875,0.003417969,0.01904297,0.9829102,-0.2338867,-0.1948242,-0.4545898
1408,-0.125,0,0,-0.01513672,-0.007324219,0.9711914,-0.2338867,-0.1948242,-0.4545898
1410,-0.1875,0,-0.125,-0.01513672,0.003417969,0.9985352,-0.2319336,-0.1948242,-0.4521484
1412,-0.125,-0.1875,-0.125,-0.007324219,-0.003417969,0.9790039,-0.2319336,-0.1948242,-0.4521484
1414,0,-0.25,-0.1875,0,0.01513672,0.9790039,-0.2319336,-0.1948242,-0.4521484
1416,0,0.0625,-0.0625,-0.007324219,-0.003417969,0.9985352,-0.2270508,-0.1879883,-0.4365234
1418,-0.0625,-0.1875,-0.1875,-0.01123047,0.007324219,0.9868164,-0.2270508,-0.1879883,-0.4365234
1420,-0.125,-0.1875,-0.1875,-0.01513672,0.007324219,0.9711914,-0.2270508,-0.1879883,-0.4365234
1422,-0.0625,0.0625,-0.125,-0.03076172,-0.01904297,1.005859,-0.2270508,-0.1879883,-0.4365234
1424,-0.1875,-0.1875,-0.25,0.02294922,0,0.9750977,-0.2270508,-0.1879883,-0.4365234
1426,0.0625,0,-0.3125,0.003417969,-0.007324219,0.9946289,-0.2270508,-0.1879883,-0.4365234
1428,-0.125,0,0,-0.003417969,0,0.9868164,-0.2270508,-0.1879883,-0.4365234
1430,-0.0625,0.0625,-0.25,0,-0.003417969,0.9868164,-0.2363281,-0.1923828,-0.4467773
1432,0,0,0.0625,-0.01123047,0.01123047,0.9985352,-0.2363281,-0.1923828,-0.4467773
1434,0,-0.1875,-0.1875,0.007324219,0.007324219,1.005859,-0.2363281,-0.1923828,-0.4467773
1436,-0.25,0,-0.0625,-0.003417969,0,0.9868164,-0.2338867,-0.1899414,-0.4365234
1438,-0.0625,0,-0.1875,-0.01513672,0,0.9750977,-0.2338867,-0.1899414,-0.4365234
1440,0,0,-0.1875,-0.03466797,-0.01123047,0.9868164,-0.2338867,-0.1899414,-0.4365234
1442,-0.125,-0.0625,-0.125,-0.007324219,0.007324219,0.9868164,-0.2319336,-0.1879883,-0.4443359
1444,-0.0625,0,-0.1875,-0.01513672,-0.01513672,0.9829102,-0.2319336,-0.1879883,-0.4443359
1446,0,0,-0.125,-0.003417969,0.003417969,0.9907227,-0.2319336,-0.1879883,-0.4443359
1448,-0.0625,0,0,0.003417969,0.003417969,0.9711914,-0.2319336,-0.1879883,-0.4443359
1450,0,0,-0.125,0.007324219,-0.01123047,0.9633789,-0.2338867,-0.1831055,-0.4521484
1452,-0.0625,0.0625,-0.1875,-0.003417969,0.007324219,0.9829102,-0.2338867,-0.1831055,-0.4521484
1454,-0.1875,-0.0625,-0.25,-0.01904297,0.003417969,0.9750977,-0.2338867,-0.1831055,-0.4521484
1456,-0.0625,-0.1875,-0.125,-0.03466797,0,0.9985352,-0.2363281,-0.1879883,-0.4521484
1458,-0.125,0,-0.4375,-0.01123047,-0.01513672,0.9633789,-0.2363281,-0.1879883,-0.4521484
1460,0,-0.1875,0,-0.01123047,-0.007324219,0.9790039,-0.2363281,-0.1879883,-0.4521484
1462,-0.1875,0,-0.3125,-0.01123047,-0.007324219,1.001953,-0.2338867,-0.1811523,-0.449707
1464,-0.1875,-0.25,-0.125,-0.01904297,0.003417969,0.9868164,-0.2338867,-0.1811523,-0.449707
1466,-0.125,0,0,-0.03076172,0.003417969,1.009766,-0.2338867,-0.1811523,-0.449707
1468,-0.25,-0.0625,0.0625,-0.003417969,0.003417969,1.005859,-0.2338867,-0.1811523,-0.449707
1470,-0.1875,-0.0625,-0.1875,0,-0.003417969,0.9829102,-0.2338867,-0.1811523,-0.449707
1472,0.0625,0,0,-0.01123047,-0.003417969,0.9790039,-0.2338867,-0.1811523,-0.449707
1474,-0.125,-0.1875,-0.0625,-0.007324219,-0.01513672,0.9829102,-0.2338867,-0.1811523,-0.449707
1476,0,0.125,-0.1875,-0.01513672,0.03466797,0.9907227,-0.2338867,-0.1899414,-0.4624023
1478,-0.125,-0.0625,-0.0625,-0.01513672,0.007324219,0.9829102,-0.2338867,-0.1899414,-0.4624023
1480,0,-0.0625,-0.25,-0.02294922,0.003417969,0.9907227,-0.2338867,-0.1899414,-0.4624023
1482,0,0,-0.3125,-0.003417969,0,1.005859,-0.2412109,-0.1831055,-0.4467773
1484,0,0,-0.1875,-0.02294922,0.007324219,0.9633789,-0.2412109,-0.1831055,-0.4467773
1486,-0.3125,0,-0.25,-0.01123047,0.003417969,0.9829102,-0.2412109,-0.1831055,-0.4467773
1488,-0.0625,-0.0625,-0.1875,-0.01904297,0,0.9711914,-0.2363281,-0.1879883,-0.4316406
1491,-0.375,-0.3125,-0.5,-0.007324219,0.01123047,0.9829102,-0.2363281,-0.1879883,-0.4316406
1493,-0.125,0,-0.4375,0,-0.01513672,0.9790039,-0.2363281,-0.1879883,-0.4316406
1495,0,0,0,0.003417969,0.01513672,0.9672852,-0.2363281,-0.1879883,-0.4316406
1497,0,-0.0625,-0.125,-0.01123047,-0.007324219,0.9946289,-0.2363281,-0.1831055,-0.4394531
1499,-0.0625,0,-0.1875,-0.01904297,0,1.001953,-0.2363281,-0.1831055,-0.4394531
1501,0,0,-0.125,0,0.01123047,0.9829102,-0.2363281,-0.1831055,-0.4394531
1503,-0.125,0.0625,-0.25,-0.007324219,0,0.9907227,-0.2363281,-0.1855469,-0.4570313
1505,-0.0625,-0.0625,-0.25,-0.02685547,0.01123047,0.9750977,-0.2363281,-0.1855469,-0.4570313
1507,0.0625,-0.0625,-0.0625,-0.01513672,0,0.9946289,-0.2363281,-0.1855469,-0.4570313
1509,0,-0.0625,0,0.003417969,-0.01513672,0.9750977,-0.2294922,-0.1811523,-0.449707
1511,0,0,-0.3125,0.007324219,0.01513672,0.9711914,-0.2294922,-0.1811523,-0.449707
1513,-0.125,-0.1875,-0.25,-0.007324219,0.02294922,0.9790039,-0.2294922,-0.1811523,-0.449707
1515,0,0,-0.0625,-0.02294922,0.02294922,0.9750977,-0.2294922,-0.1811523,-0.449707
1517,-0.0625,0,-0.125,0,0.007324219,0.9907227,-0.2294922,-0.1811523,-0.449707
1519,0,-0.1875,-0.3125,-0.01123047,0,0.9985352,-0.2294922,-0.1811523,-0.449707
1521,-0.0625,0,-0.125,-0.02294922,0.01123047,0.9907227,-0.2294922,-0.1811523,-0.449707
1523,0,0,-0.0625,-0.003417969,0.003417969,0.9829102,-0.2338867,-0.1831055,-0.4365234
1525,-0.125,0,-0.125,0.003417969,-0.007324219,0.9829102,-0.2338867,-0.1831055,-0.4365234
1527,0,0.0625,-0.1875,-0.01513672,-0.003417969,0.9907227,-0.2338867,-0.1831055,-0.4365234
1529,-0.125,0.0625,-0.0625,-0.03076172,0,0.9829102,-0.2270508,-0.1899414,-0.4418945
1531,0,-0.1875,-0.0625,-0.007324219,0,0.9790039,-0.2270508,-0.1899414,-0.4418945
1533,0,-0.0625,-0.125,-0.01123047,0.003417969,0.9829102,-0.2270508,-0.1899414,-0.4418945
1535,-0.125,0.0625,-0.125,0.007324219,0.01123047,0.9868164,-0.2412109,-0.1811523,-0.449707
1537,-0.0625,-0.1875,-0.0625,-0.01513672,0.007324219,0.8657227,-0.2412109,-0.1811523,-0.449707
1539,-1.0625,-3.5625,-0.1875,-0.007324219,0.02294922,0.5458984,-0.2412109,-0.1811523,-0.449707
1541,-0.125,-2.5,-0.25,-0.003417969,0.007324219,1.041016,-0.2412109,-0.1811523,-0.449707
1543,-0.375,-0.9375,-0.0625,0.03857422,-0.003417969,1.177734,-0.2412109,-0.1811523,-0.449707
1545,0.0625,0.5,-0.125,0.01513672,-0.01123047,1.173828,-0.2412109,-0.1811523,-0.449707
1547,0.5,1.5625,-0.125,-0.007324219,-0.02685547,1.052734,-0.2412109,-0.1811523,-0.449707
1549,0.5625,1.25,-0.0625,-0.03076172,0.02294922,0.9790039,-0.2319336,-0.1879883,-0.4467773
1551,0.75,0.75,-0.125,-0.04638672,0.01904297,0.8891602,-0.2319336,-0.1879883,-0.4467773
1553,-0.1875,-0.4375,-0.125,-0.02294922,0.03076172,0.9321289,-0.2319336,-0.1879883,-0.4467773
1555,-0.4375,-0.25,-0.1875,-0.03466797,0.01513672,0.9633789,-0.2319336,-0.1899414,-0.4467773
1557,-0.0625,-0.4375,-0.25,-0.02294922,-0.007324219,0.8969727,-0.2319336,-0.1899414,-0.4467773
1559,-0.1875,-0.5,-0.4375,0.01513672,-0.003417969,0.9946289,-0.2319336,-0.1899414,-0.4467773
1561,0.1875,0,-0.125,0.01513672,0.003417969,1.021484,-0.2338867,-0.1899414,-0.4418945
1563,0.125,0.1875,-0.125,0,-0.003417969,1.033203,-0.2338867,-0.1899414,-0.4418945
1565,0,0.3125,-0.1875,-0.03466797,0,0.9985352,-0.2338867,-0.1899414,-0.4418945
1567,0,0.1875,0.0625,-0.01904297,0.02294922,0.9750977,-0.2338867,-0.1899414,-0.4418945
1569,-0.1875,0.25,-0.125,-0.03857422,0.01513672,0.9868164,-0.2319336,-0.1811523,-0.4365234
1571,0,-0.25,-0.1875,-0.01904297,0.02294922,0.9868164,-0.2319336,-0.1811523,-0.4365234
1573,-0.0625,-0.1875,-0.5,-0.01904297,0,0.9750977,-0.2319336,-0.1811523,-0.4365234
1575,-0.0625,-0.5,-0.125,-0.01123047,0,0.9829102,-0.2270508,-0.1787109,-0.4521484
1577,-0.125,-0.1875,-0.25,0.01513672,-0.01123047,0.9985352,-0.2270508,-0.1787109,-0.4521484
1579,-0.125,-0.1875,-0.125,0.01513672,-0.01123047,1.009766,-0.2270508,-0.1787109,-0.4521484
1581,-0.0625,0.1875,-0.0625,0,-0.003417969,0.9907227,-0.2270508,-0.1831055,-0.4467773
1583,-0.1875,0.25,0,-0.02294922,0.01904297,0.9711914,-0.2270508,-0.1831055,-0.4467773
1585,0.125,0.125,-0.125,-0.03076172,0.01513672,0.9516602,-0.2270508,-0.1831055,-0.4467773
1587,0,-0.0625,-0.1875,-0.007324219,0.007324219,0.9672852,-0.2270508,-0.1831055,-0.4467773
1589,0,-0.3125,-0.25,-0.03076172,0.02685547,0.9946289,-0.2270508,-0.1831055,-0.4467773
1591,-0.1875,-0.5625,-0.25,-0.01123047,-0.03466797,1.017578,-0.2270508,-0.1831055,-0.4467773
1593,-0.25,-0.25,-0.1875,0.01904297,-0.007324219,1.052734,-0.2270508,-0.1831055,-0.4467773
1595,-0.125,-0.0625,-0.0625,0.003417969,-0.02294922,1.033203,-0.2338867,-0.1831055,-0.4443359
1597,0,0.1875,-0.125,0,-0.003417969,0.9946289,-0.2338867,-0.1831055,-0.4443359
1599,0,0,0.0625,-0.03466797,0.01123047,0.9477539,-0.2338867,-0.1831055,-0.4443359
1601,0.0625,-0.0625,-0.25,-0.01513672,0.007324219,0.9321289,-0.2319336,-0.1811523,-0.4443359
1603,-0.125,0,-0.125,-0.02294922,0.02294922,0.9516602,-0.2319336,-0.1811523,-0.4443359
1605,-0.0625,-0.3125,-0.25,-0.003417969,0.01123047,0.9750977,-0.2319336,-0.1811523,-0.4443359
1607,-0.125,0,-0.25,-0.01123047,0.01123047,1.013672,-0.2294922,-0.1855469,-0.4443359
1609,-0.0625,-0.1875,-0.25,0.003417969,0,1.017578,-0.2294922,-0.1855469,-0.4443359
1611,-0.1875,0.1875,-0.0625,-0.003417969,0.01123047,1.021484,-0.2294922,-0.1855469,-0.4443359
1613,0,-0.0625,-0.0625,-0.007324219,-0.01513672,1.013672,-0.2294922,-0.1855469,-0.4443359
1615,0,-0.1875,-0.0625,-0.003417969,0,0.9633789,-0.2294922,-0.1923828,-0.4467773
1617,-0.125,-0.0625,-0.0625,-0.007324219,0,0.9633789,-0.2294922,-0.1923828,-0.4467773
1621,-0.0625,0,-0.125,-0.03076172,0.003417969,0.9360352,-0.2294922,-0.1923828,-0.4467773
1623,-0.125,0.0625,-0.25,-0.007324219,0.01904297,0.9672852,-0.2270508,-0.1855469,-0.4418945
1625,0,-0.0625,0,-0.003417969,0,0.9907227,-0.2270508,-0.1855469,-0.4418945
1627,0,0,-0.0625,0.003417969,-0.007324219,1.005859,-0.2270508,-0.1855469,-0.4418945
1629,0,0.25,0,-0.01123047,0.01513672,0.9985352,-0.2294922,-0.1923828,-0.4521484
1631,-0.25,-0.0625,-0.0625,-0.02685547,-0.003417969,1.005859,-0.2294922,-0.1923828,-0.4521484
1633,0.0625,-0.0625,-0.25,0,0.003417969,0.9946289,-0.2294922,-0.1923828,-0.4521484
1635,-0.3125,0,-0.1875,-0.01904297,-0.003417969,0.9829102,-0.2294922,-0.1923828,-0.4521484
1637,0,0,-0.0625,-0.007324219,0,0.9672852,-0.2294922,-0.1923828,-0.4521484
1639,0,-0.625,-0.1875,-0.01904297,0.003417969,0.9750977,-0.2294922,-0.1923828,-0.4521484
1641,-0.3125,-0.1875,-0.25,-0.01123047,-0.003417969,0.9750977,-0.2294922,-0.1923828,-0.4521484
1643,-0.1875,-0.0625,-0.125,-0.01904297,-0.01513672,0.9672852,-0.2270508,-0.1879883,-0.4467773
1645,0,0.0625,-0.125,0,-0.01513672,0.9829102,-0.2270508,-0.1879883,-0.4467773
1647,0,0,-0.25,-0.01904297,0.01123047,0.9672852,-0.2270508,-0.1879883,-0.4467773
1649,-0.0625,-0.25,-0.1875,-0.01513672,-0.003417969,0.9790039,-0.2246094,-0.1879883,-0.4418945
1651,-0.1875,0.0625,-0.25,-0.01904297,0.01513672,0.9750977,-0.2246094,-0.1879883,-0.4418945
1653,0,-0.25,-0.1875,-0.02294922,0.02685547,1.001953,-0.2246094,-0.1879883,-0.4418945
1655,0,-0.25,-0.25,0,0,0.9985352,-0.2319336,-0.1787109,-0.4467773
1657,-0.125,-0.1875,-0.25,0,0.007324219,0.9985352,-0.2319336,-0.1787109,-0.4467773
1659,0,0,0,-0.007324219,0.01123047,1.009766,-0.2319336,-0.1787109,-0.4467773
1661,-0.1875,0.25,-0.125,-0.007324219,0.003417969,0.9711914,-0.2319336,-0.1787109,-0.4467773
1663,-0.0625,0,-0.1875,0,0,0.9790039,-0.2294922,-0.1811523,-0.449707
1665,-0.1875,-0.0625,-0.25,-0.01123047,0.003417969,0.9438477,-0.2294922,-0.1811523,-0.449707
1667,-0.0625,0.125,-0.125,-0.007324219,-0.003417969,0.9594727,-0.2294922,-0.1811523,-0.449707
1669,-0.0625,-0.3125,-0.5,0,0,0.9711914,-0.2270508,-0.1831055,-0.4443359
1671,0,0,-0.0625,-0.003417969,0.01123047,1.013672,-0.2270508,-0.1831055,-0.4443359
1673,-0.0625,0.0625,-0.0625,0,0.007324219,1.001953,-0.2270508,-0.1831055,-0.4443359
1675,-0.3125,0.0625,-0.1875,0.007324219,0.01513672,0.9946289,-0.2270508,-0.1738281,-0.4394531
1677,0,0,-0.25,-0.01904297,0.003417969,0.9790039,-0.2270508,-0.1738281,-0.4394531
1679,-0.0625,0,-0.25,-0.01123047,0,0.9907227,-0.2270508,-0.1738281,-0.4394531
1681,0,-0.25,-0.125,-0.01513672,0.01904297,0.9790039,-0.2319336,-0.1855469,-0.4545898
1683,0,-0.1875,-0.125,0.003417969,0,0.9711914,-0.2319336,-0.1855469,-0.4545898
1685,0,0,-0.1875,-0.003417969,-0.01513672,0.9829102,-0.2319336,-0.1855469,-0.4545898
1687,0.0625,-0.0625,-0.25,-0.03076172,-0.01904297,0.9672852,-0.2319336,-0.1855469,-0.4545898
1689,-0.1875,0,0,-0.01904297,0.01513672,0.9868164,-0.2294922,-0.1787109,-0.434082
1691,-0.125,0,0,0,-0.007324219,1.009766,-0.2294922,-0.1787109,-0.434082
1693,-0.0625,-0.0625,-0.1875,-0.03076172,0.003417969,0.9946289,-0.2294922,-0.1787109,-0.434082
1695,0,0,0,-0.01904297,0.01904297,0.9907227,-0.2246094,-0.1923828,-0.4467773
1697,-0.1875,-0.0625,-0.125,0,0,0.9829102,-0.2246094,-0.1923828,-0.4467773
1699,-0.125,-0.0625,-0.1875,-0.003417969,0.003417969,0.9750977,-0.2246094,-0.1923828,-0.4467773
1701,-0.125,-0.0625,-0.1875,-0.003417969,-0.003417969,0.9750977,-0.2319336,-0.1879883,-0.4467773
1703,0,-0.0625,-0.0625,-0.01904297,-0.01123047,0.9907227,-0.2319336,-0.1879883,-0.4467773
1705,-0.0625,0,-0.125,0.007324219,-0.003417969,0.9868164,-0.2319336,-0.1879883,-0.4467773
1707,-0.125,0.125,-0.1875,-0.007324219,-0.003417969,0.9672852,-0.2319336,-0.1879883,-0.4467773
1709,0.0625,-0.0625,-0.125,0.007324219,-0.003417969,0.9907227,-0.2319336,-0.1879883,-0.4467773
1711,-0.1875,0,-0.25,0,-0.003417969,0.9868164,-0.2319336,-0.1879883,-0.4467773
1713,-0.1875,-0.1875,-0.3125,-0.01123047,-0.003417969,0.9790039,-0.2319336,-0.1879883,-0.4467773
1715,-0.125,-0.5,-0.125,-0.01904297,0.003417969,1.009766,-0.2363281,-0.1811523,-0.4467773
1717,0,-0.3125,0,-0.02685547,0.007324219,1.013672,-0.2363281,-0.1811523,-0.4467773
1719,-0.0625,-0.0625,-0.1875,-0.003417969,-0.01513672,0.9946289,-0.2363281,-0.1811523,-0.4467773
1721,0,0,0,-0.02294922,-0.007324219,0.9633789,-0.2270508,-0.1923828,-0.4443359
1723,0,0,-0.1875,0.003417969,-0.003417969,0.9829102,-0.2270508,-0.1923828,-0.4443359
1725,0,-0.1875,0,-0.01123047,-0.01513672,0.9555664,-0.2270508,-0.1923828,-0.4443359
1727,-0.125,-0.1875,0,-0.01513672,0,0.9790039,-0.2363281,-0.1855469,-0.4365234
1729,0,0,-0.1875,-0.01513672,0,0.9790039,-0.2363281,-0.1855469,-0.4365234
1731,0,-0.0625,-0.0625,-0.02294922,-0.01513672,0.9711914,-0.2363281,-0.1855469,-0.4365234
1733,0,-0.0625,-0.0625,0.01513672,0.01513672,0.9985352,-0.2363281,-0.1855469,-0.4365234
1735,-0.3125,0,-0.1875,-0.003417969,0,0.9790039,-0.2363281,-0.1948242,-0.4394531
1737,0.0625,0.0625,-0.125,-0.01123047,0,0.9946289,-0.2363281,-0.1948242,-0.4394531
1739,-0.0625,-0.0625,-0.0625,-0.01513672,0.01123047,0.9672852,-0.2363281,-0.1948242,-0.4394531
1741,-0.125,0,-0.0625,-0.02294922,0.01123047,0.9868164,-0.2319336,-0.1879883,-0.4521484
1743,-0.125,-0.25,-0.25,0.007324219,0.003417969,0.9633789,-0.2319336,-0.1879883,-0.4521484
1745,-0.1875,-0.0625,0,-0.01123047,0,0.9672852,-0.2319336,-0.1879883,-0.4521484
1747,0,0,-0.125,0.01513672,-0.01513672,0.9633789,-0.2270508,-0.1923828,-0.449707
1750,-0.1875,-0.25,0.0625,-0.02294922,0,0.9790039,-0.2270508,-0.1923828,-0.449707
1752,0,-0.25,-0.3125,-0.003417969,0.007324219,0.9907227,-0.2270508,-0.1923828,-0.449707
1754,0.0625,0.0625,-0.125,-0.003417969,0.02294922,0.9985352,-0.2270508,-0.1923828,-0.449707
1756,-0.0625,-0.1875,-0.3125,-0.03076172,0.01513672,0.9829102,-0.2270508,-0.1923828,-0.449707
1758,-0.0625,-0.1875,-0.125,-0.01513672,0.007324219,0.9946289,-0.2270508,-0.1923828,-0.449707
1760,-0.0625,0,-0.1875,-0.003417969,-0.003417969,1.005859,-0.2270508,-0.1923828,-0.449707
1762,-0.125,-0.25,-0.0625,-0.007324219,-0.01513672,0.9868164,-0.2294922,-0.1923828,-0.4316406
1764,0,-0.25,-0.125,-0.01513672,-0.03076172,0.9907227,-0.2294922,-0.1923828,-0.4316406
1766,-0.25,0,-0.125,-0.01513672,0,0.9790039,-0.2294922,-0.1923828,-0.4316406
1768,0.0625,0,-0.25,-0.03076172,-0.007324219,0.9868164,-0.2363281,-0.1923828,-0.4443359
1770,0,0.0625,-0.125,-0.03076172,0.02685547,0.8930664,-0.2363281,-0.1923828,-0.4443359
1772,-1.3125,-3.5625,-0.1875,-0.08154297,0.03857422,0.5537109,-0.2363281,-0.1923828,-0.4443359
1774,-0.1875,-3.0625,-0.125,-0.03076172,0.04248047,1.056641,-0.2246094,-0.1899414,-0.449707
1776,-0.125,-1.1875,-0.1875,-0.03466797,0,1.330078,-0.2246094,-0.1899414,-0.449707
1778,0,1.125,-0.125,0.06201172,-0.03076172,1.364746,-0.2246094,-0.1899414,-0.449707
1780,0.75,3,-0.0625,0.01904297,-0.02294922,1.130859,-0.2246094,-0.1899414,-0.449707
1782,0.3125,2.1875,-0.125,-0.003417969,0.04248047,0.8500977,-0.2319336,-0.1923828,-0.4418945
1784,0.1875,0.875,0,-0.06201172,0.02294922,0.9047852,-0.2319336,-0.1923828,-0.4418945
1786,-0.3125,-0.5,-0.625,-0.06591797,0.03857422,0.9165039,-0.2319336,-0.1923828,-0.4418945
1788,-0.8125,-0.25,-0.5,-0.02685547,0.007324219,0.9750977,-0.2319336,-0.1923828,-0.449707
1790,-0.5,-0.1875,-0.1875,-0.02294922,-0.007324219,0.8891602,-0.2319336,-0.1923828,-0.449707
1792,-0.125,-0.625,-0.4375,0,-0.03076172,0.9477539,-0.2319336,-0.1923828,-0.449707
1794,0.125,-0.375,-0.25,0.007324219,-0.01904297,1.029297,-0.2270508,-0.1855469,-0.4467773
1796,0.125,0.3125,-0.0625,0.01513672,-0.003417969,1.080078,-0.2270508,-0.1855469,-0.4467773
1798,-0.375,0.5625,0,-0.01513672,0,1.017578,-0.2270508,-0.1855469,-0.4467773
1800,-0.4375,0.4375,-0.0625,-0.03466797,0.02294922,0.9633789,-0.2270508,-0.1855469,-0.4467773
1802,0.1875,-0.1875,-0.1875,-0.03076172,0.04248047,0.9750977,-0.2270508,-0.1855469,-0.4467773
1804,0,-0.25,-0.3125,-0.02685547,0.01123047,0.9829102,-0.2270508,-0.1855469,-0.4467773
1806,-0.125,-0.3125,-0.4375,-0.003417969,0.003417969,0.9711914,-0.2270508,-0.1855469,-0.4467773
1808,-0.0625,-0.1875,-0.1875,0,-0.007324219,0.9868164,-0.2338867,-0.1811523,-0.4545898
1810,-0.125,0,-0.375,0.02685547,-0.01904297,0.9907227,-0.2338867,-0.1811523,-0.4545898
1812,-0.3125,0,-0.0625,0.01123047,0,0.9868164,-0.2338867,-0.1811523,-0.4545898
1814,0.0625,0.0625,0,0,-0.007324219,0.9594727,-0.2319336,-0.1879883,-0.4443359
1816,0,0.125,-0.125,0,0.03466797,0.9438477,-0.2319336,-0.1879883,-0.4443359
1818,0.125,0.1875,-0.125,-0.01904297,0.02685547,0.9555664,-0.2319336,-0.1879883,-0.4443359
1820,0,0,-0.375,-0.03857422,0.02685547,0.9672852,-0.2294922,-0.1899414,-0.4467773
1822,-0.1875,-0.4375,-0.3125,-0.02294922,0.007324219,1.009766,-0.2294922,-0.1899414,-0.4467773
1824,-0.4375,-0.375,-0.125,0,-0.02294922,1.048828,-0.2294922,-0.1899414,-0.4467773
1826,-0.3125,-0.0625,-0.25,0,-0.02685547,1.056641,-0.2294922,-0.1899414,-0.4467773
1828,-0.125,0,-0.0625,0.01513672,-0.01123047,1.044922,-0.2294922,-0.1899414,-0.4467773
1830,-0.0625,0.125,-0.0625,-0.01123047,-0.01513672,0.9633789,-0.2294922,-0.1899414,-0.4467773
1832,0,0.125,-0.125,-0.01904297,-0.01904297,0.9282227,-0.2294922,-0.1899414,-0.4467773
1834,-0.0625,0.1875,0,-0.02294922,-0.003417969,0.9086914,-0.2270508,-0.1855469,-0.449707
1836,0,-0.3125,0,-0.02294922,0.007324219,0.8891602,-0.2270508,-0.1855469,-0.449707
1838,0,-0.3125,-0.25,-0.02685547,0,0.9750977,-0.2270508,-0.1855469,-0.449707
1840,-0.125,-0.1875,-0.125,-0.01123047,0.01513672,1.021484,-0.2270508,-0.1948242,-0.449707
1842,0,-0.0625,-0.0625,0.01123047,0.003417969,1.033203,-0.2270508,-0.1948242,-0.449707
1844,-0.0625,-0.0625,-0.3125,0,0.003417969,1.013672,-0.2270508,-0.1948242,-0.449707
1846,0,0.125,0.0625,0.007324219,0.01123047,0.9907227,-0.2319336,-0.1879883,-0.4467773
1848,-0.125,0,-0.0625,-0.01904297,0.01123047,0.9750977,-0.2319336,-0.1879883,-0.4467773
1850,0,-0.25,-0.5,-0.007324219,0.01123047,0.9633789,-0.2319336,-0.1879883,-0.4467773
1852,0,0,0,-0.01123047,0,0.9672852,-0.2319336,-0.1879883,-0.4467773
1854,0,-0.3125,-0.0625,-0.003417969,0.01513672,0.9633789,-0.2338867,-0.1879883,-0.4394531
1856,-0.0625,-0.0625,-0.25,0,-0.01123047,1.013672,-0.2338867,-0.1879883,-0.4394531
1858,-0.1875,-0.0625,-0.125,0.003417969,-0.01513672,1.005859,-0.2338867,-0.1879883,-0.4394531
1860,-0.0625,-0.0625,0,0.003417969,-0.01513672,1.001953,-0.2338867,-0.1831055,-0.4443359
1862,-0.0625,0.0625,0,-0.007324219,0.003417969,0.9946289,-0.2338867,-0.1831055,-0.4443359
1864,-0.125,0,0,-0.01904297,0.01123047,0.9750977,-0.2338867,-0.1831055,-0.4443359
1866,-0.125,-0.1875,-0.0625,-0.02294922,0.01904297,0.9750977,-0.2363281,-0.1948242,-0.4443359
1868,0,-0.1875,-0.25,-0.03076172,0.01513672,0.9711914,-0.2363281,-0.1948242,-0.4443359
1870,-0.125,-0.0625,0,-0.003417969,0.01513672,1.001953,-0.2363281,-0.1948242,-0.4443359
1872,0,-0.0625,-0.125,-0.01123047,-0.007324219,1.001953,-0.2363281,-0.1948242,-0.4443359
1874,0,0,-0.1875,-0.01513672,-0.007324219,0.9985352,-0.2363281,-0.1948242,-0.4443359
1876,0,0.125,-0.1875,0,-0.01513672,0.9633789,-0.2363281,-0.1948242,-0.4443359
1879,0,-0.0625,-0.0625,-0.003417969,-0.007324219,0.9555664,-0.2363281,-0.1948242,-0.4443359
1881,-0.0625,0,-0.1875,-0.01123047,-0.007324219,0.9711914,-0.2319336,-0.1899414,-0.4443359
1883,-0.125,-0.1875,-0.25,-0.01904297,0.007324219,0.9555664,-0.2319336,-0.1899414,-0.4443359
1885,-0.0625,-0.1875,-0.25,-0.003417969,0.003417969,1.001953,-0.2319336,-0.1899414,-0.4443359
1887,0,-0.1875,-0.25,-0.01904297,0.007324219,1.005859,-0.2294922,-0.1972656,-0.4418945
1889,-0.0625,-0.1875,0.0625,0.01904297,0.003417969,1.013672,-0.2294922,-0.1972656,-0.4418945
1891,-0.1875,0.0625,-0.25,0.003417969,-0.01513672,0.9946289,-0.2294922,-0.1972656,-0.4418945
1893,0.0625,0.0625,-0.25,-0.01123047,0,0.9750977,-0.2319336,-0.1923828,-0.449707
1895,-0.125,0.125,-0.125,-0.003417969,-0.003417969,0.9672852,-0.2319336,-0.1923828,-0.449707
1897,0,0,-0.0625,-0.02294922,-0.003417969,0.9555664,-0.2319336,-0.1923828,-0.449707
1899,-0.0625,0,-0.1875,-0.003417969,0.003417969,0.9711914,-0.2319336,-0.1923828,-0.449707
1901,0,-0.125,-0.125,-0.01904297,0.01123047,1.001953,-0.2294922,-0.1899414,-0.4521484
1903,-0.125,-0.0625,-0.1875,-0.003417969,-0.003417969,1.013672,-0.2294922,-0.1899414,-0.4521484
1905,-0.0625,-0.0625,-0.0625,0,-0.01513672,1.033203,-0.2294922,-0.1899414,-0.4521484
1907,-0.0625,0,-0.125,-0.04248047,0.003417969,1.013672,-0.2294922,-0.1879883,-0.4443359
1909,-0.0625,0.0625,0,-0.01904297,-0.003417969,0.9907227,-0.2294922,-0.1879883,-0.4443359
1911,0,0,0,-0.01123047,0.01513672,0.9790039,-0.2294922,-0.1879883,-0.4443359
1913,0,-0.1875,-0.0625,-0.003417969,-0.01513672,0.9555664,-0.2319336,-0.1855469,-0.4418945
1915,-0.0625,0,-0.0625,0.003417969,0.007324219,0.9711914,-0.2319336,-0.1855469,-0.4418945
1917,-0.1875,-0.1875,-0.25,-0.01513672,-0.01904297,0.9829102,-0.2319336,-0.1855469,-0.4418945
1919,0,-0.25,-0.125,-0.01904297,-0.003417969,0.9985352,-0.2319336,-0.1855469,-0.4418945
1921,-0.0625,-0.1875,-0.0625,-0.01904297,0,1.005859,-0.2319336,-0.1855469,-0.4418945
1923,-0.0625,0,-0.1875,-0.01123047,-0.01123047,1.001953,-0.2319336,-0.1855469,-0.4418945
1925,-0.125,0.0625,-0.1875,-0.02294922,0.01123047,0.9829102,-0.2319336,-0.1855469,-0.4418945
1927,-0.1875,-0.0625,-0.125,-0.03076172,0.003417969,0.9946289,-0.2294922,-0.1948242,-0.4418945
1929,-0.0625,-0.25,0,-0.007324219,0.01904297,0.9711914,-0.2294922,-0.1948242,-0.4418945
1931,-0.3125,-0.3125,-0.3125,-0.01123047,0.01513672,0.9516602,-0.2294922,-0.1948242,-0.4418945
1933,-0.125,0,-0.125,-0.003417969,0,0.9868164,-0.2319336,-0.1899414,-0.4443359
1935,-0.125,0,-0.125,-0.01904297,0,0.9711914,-0.2319336,-0.1899414,-0.4443359
1937,0,0,0,-0.007324219,-0.01123047,0.9829102,-0.2319336,-0.1899414,-0.4443359
1939,0,0.125,-0.0625,0,0.01904297,0.9790039,-0.2338867,-0.1972656,-0.449707
1941,-0.3125,-0.1875,-0.125,-0.007324219,-0.007324219,0.9790039,-0.2338867,-0.1972656,-0.449707
1943,0,0,-0.3125,0.01904297,0.007324219,0.9868164,-0.2338867,-0.1972656,-0.449707
1945,-0.0625,-0.25,-0.3125,0.003417969,0.003417969,0.9907227,-0.2338867,-0.1972656,-0.449707
1947,0,-0.0625,-0.125,-0.01123047,0.01123047,0.9985352,-0.2294922,-0.1972656,-0.4443359
1949,-0.3125,0,-0.25,-0.007324219,-0.01513672,1.001953,-0.2294922,-0.1972656,-0.4443359
1951,0,0,-0.0625,-0.01904297,0.003417969,0.9829102,-0.2294922,-0.1972656,-0.4443359
1953,-0.0625,0.0625,-0.125,-0.01123047,0.003417969,0.9868164,-0.2319336,-0.1948242,-0.4365234
1955,-0.0625,0.0625,-0.25,-0.01904297,-0.003417969,0.9790039,-0.2319336,-0.1948242,-0.4365234
1957,-0.0625,0.0625,-0.0625,-0.01123047,-0.007324219,0.9594727,-0.2319336,-0.1948242,-0.4365234
1959,0,0,0,-0.01513672,0.01123047,0.9672852,-0.2363281,-0.1855469,-0.4467773
1961,-0.1875,0,0,0,0,0.9672852,-0.2363281,-0.1855469,-0.4467773
1963,-0.0625,-0.0625,-0.25,-0.01123047,0,0.9985352,-0.2363281,-0.1855469,-0.4467773
1965,-0.0625,-0.3125,0,-0.007324219,0.01513672,1.021484,-0.2363281,-0.1855469,-0.4467773
1967,-0.1875,-0.1875,-0.25,-0.02294922,0,1.017578,-0.2363281,-0.1855469,-0.4467773
1969,0,-0.3125,-0.125,0.003417969,0.01904297,1.005859,-0.2363281,-0.1855469,-0.4467773
1971,-0.1875,-0.0625,-0.125,-0.003417969,0,0.9594727,-0.2363281,-0.1855469,-0.4467773
1973,-0.0625,-0.0625,-0.25,0.007324219,0.007324219,0.9946289,-0.2246094,-0.1831055,-0.449707
1975,-0.1875,0,0,-0.01904297,0.007324219,0.9438477,-0.2246094,-0.1831055,-0.449707
1977,-0.0625,-0.25,-0.1875,-0.01123047,-0.01513672,0.9711914,-0.2246094,-0.1831055,-0.449707
1979,-0.0625,-0.0625,-0.1875,-0.01513672,0.01904297,0.9672852,-0.2294922,-0.1811523,-0.449707
1981,-0.125,-0.0625,-0.0625,0,0.01513672,0.9829102,-0.2294922,-0.1811523,-0.449707
1983,-0.0625,0.0625,-0.25,-0.02685547,0.003417969,0.9985352,-0.2294922,-0.1811523,-0.449707
1985,-0.0625,0,-0.3125,-0.007324219,-0.003417969,0.9907227,-0.2319336,-0.1855469,-0.4418945
1987,-0.0625,0,-0.25,0.01513672,0.02685547,0.9594727,-0.2319336,-0.1855469,-0.4418945
1989,-0.125,-0.0625,-0.25,-0.02294922,0.01123047,0.9868164,-0.2319336,-0.1855469,-0.4418945
1991,-0.1875,-0.1875,-0.1875,0.003417969,-0.01513672,1.005859,-0.2319336,-0.1855469,-0.4418945
1993,-0.0625,-0.1875,-0.25,0,0.003417969,0.9907227,-0.2319336,-0.1855469,-0.4418945
1995,0,0.0625,-0.0625,-0.03076172,-0.007324219,0.9790039,-0.2319336,-0.1855469,-0.4418945
1997,-0.125,0.0625,-0.3125,-0.02294922,0.003417969,0.9672852,-0.2319336,-0.1855469,-0.4418945
1999,-0.125,0,-0.125,0,-0.01513672,0.9633789,-0.2270508,-0.1948242,-0.449707
2001,0.0625,0,0,-0.003417969,0,0.9790039,-0.2270508,-0.1948242,-0.449707
2003,-0.125,-0.0625,-0.5,-0.003417969,0.02294922,0.7954102,-0.2270508,-0.1948242,-0.449707
2005,-1,-2.3125,-0.3125,0.1049805,-0.007324219,0.8813477,-0.2270508,-0.1811523,-0.4418945
2008,-1.25,-2.875,-0.125,0.03076172,-0.01904297,0.9711914,-0.2270508,-0.1811523,-0.4418945
2010,0,-1.375,-0.125,0.02294922,-0.03857422,1.166016,-0.2270508,-0.1811523,-0.4418945
2012,0,1,-0.0625,0.03076172,-0.03857422,1.341309,-0.2177734,-0.1855469,-0.4262695
2014,0.625,2.1875,-0.0625,0.01513672,-0.02294922,1.060547,-0.2177734,-0.1855469,-0.4262695
2016,0.75,1.5,-0.3125,-0.02685547,0.01904297,0.9086914,-0.2177734,-0.1855469,-0.4262695
2018,0.5625,0.875,-0.0625,-0.03076172,0.03857422,0.8657227,-0.2177734,-0.1855469,-0.4262695
2020,-0.0625,-0.3125,-0.125,-0.06201172,0.01123047,0.9243164,-0.2294922,-0.1831055,-0.4467773
2022,-0.4375,-0.375,-0.0625,-0.01513672,0.01123047,0.9125977,-0.2294922,-0.1831055,-0.4467773
2024,-0.4375,-0.4375,-0.5625,-0.03076172,-0.01123047,0.8735352,-0.2294922,-0.1831055,-0.4467773
2026,0,-0.5625,-0.375,0.01513672,-0.02685547,0.8930664,-0.2319336,-0.1923828,-0.4365234
2028,0,-0.375,-0.125,0.01513672,-0.05029297,1.017578,-0.2319336,-0.1923828,-0.4365234
2030,0.0625,0.0625,-0.125,0.007324219,-0.01904297,1.048828,-0.2319336,-0.1923828,-0.4365234
2032,0,0.3125,-0.0625,-0.01123047,0.01123047,1.037109,-0.2270508,-0.1879883,-0.4365234
2034,-0.125,0.5,0,-0.04638672,0.02294922,0.9790039,-0.2270508,-0.1879883,-0.4365234
2036,0.125,0,-0.0625,-0.02294922,0.02685547,0.9633789,-0.2270508,-0.1879883,-0.4365234
2038,-0.125,0,-0.125,-0.03076172,0.03076172,0.9868164,-0.2270508,-0.1879883,-0.4365234
2040,-0.375,-0.125,-0.4375,0.007324219,0.01904297,0.9790039,-0.2270508,-0.1879883,-0.4365234
2042,-0.1875,-0.375,-0.4375,0.01123047,0,0.9790039,-0.2270508,-0.1879883,-0.4365234
2044,-0.125,-0.25,0,0.01904297,-0.02294922,1.001953,-0.2270508,-0.1879883,-0.4365234
2046,-0.0625,-0.25,-0.25,0.01513672,-0.01904297,1.001953,-0.2246094,-0.1899414,-0.4418945
2048,-0.1875,0,-0.0625,0.007324219,-0.003417969,0.9594727,-0.2246094,-0.1899414,-0.4418945
2050,0,0.0625,0,-0.03857422,-0.007324219,0.9516602,-0.2246094,-0.1899414,-0.4418945
2052,0,0.3125,-0.0625,-0.02685547,0.007324219,0.9711914,-0.2246094,-0.1855469,-0.4443359
2054,0,0,-0.25,-0.02685547,0.007324219,0.9750977,-0.2246094,-0.1855469,-0.4443359
2056,-0.1875,-0.0625,-0.4375,-0.01513672,0.02685547,0.9790039,-0.2246094,-0.1855469,-0.4443359
2058,-0.1875,-0.375,-0.3125,0.01123047,-0.02294922,1.044922,-0.2246094,-0.1811523,-0.4418945
2060,-0.3125,-0.3125,-0.3125,0.01513672,-0.03076172,1.041016,-0.2246094,-0.1811523,-0.4418945
2062,0,0.25,0.0625,0.01123047,-0.02685547,0.9985352,-0.2246094,-0.1811523,-0.4418945
2064,0,0.1875,-0.25,0,-0.02294922,0.9711914,-0.2246094,-0.1811523,-0.4418945
2066,0,0.1875,-0.125,-0.01904297,-0.01513672,0.9321289,-0.2294922,-0.1831055,-0.449707
2068,-0.125,0,-0.1875,-0.04248047,0.01904297,0.9243164,-0.2294922,-0.1831055,-0.449707
2070,0,-0.0625,-0.0625,-0.03857422,0.003417969,0.9282227,-0.2294922,-0.1831055,-0.449707
2072,0,0,-0.125,-0.01513672,0.003417969,0.9750977,-0.222168,-0.1923828,-0.4443359
2074,-0.0625,-0.3125,-0.4375,-0.01513672,0.01123047,1.009766,-0.222168,-0.1923828,-0.4443359
2076,0,-0.25,-0.1875,0,0.007324219,1.044922,-0.222168,-0.1923828,-0.4443359
2078,-0.0625,0,-0.0625,-0.007324219,0.003417969,1.029297,-0.2246094,-0.1787109,-0.4467773
2080,-0.1875,0,-0.1875,-0.01513672,-0.01513672,1.001953,-0.2246094,-0.1787109,-0.4467773
2082,-0.0625,0,-0.125,-0.01513672,0.007324219,0.9672852,-0.2246094,-0.1787109,-0.4467773
2084,-0.3125,-0.25,-0.25,-0.01513672,0.007324219,0.9360352,-0.2246094,-0.1787109,-0.4467773
2086,0,-0.1875,0,-0.02685547,0.01123047,0.9555664,-0.2246094,-0.1787109,-0.4467773
2088,0,-0.25,-0.0625,-0.03076172,0.007324219,0.9516602,-0.2246094,-0.1787109,-0.4467773
2090,0,0,-0.3125,-0.01123047,-0.01123047,0.9790039,-0.2246094,-0.1787109,-0.4467773
2092,-0.1875,0,-0.125,-0.01123047,0.01123047,0.9790039,-0.222168,-0.1855469,-0.4443359
2094,-0.125,0,-0.125,0.007324219,0.01513672,0.9985352,-0.222168,-0.1855469,-0.4443359
2096,-0.125,0,0,-0.01123047,-0.01123047,1.013672,-0.222168,-0.1855469,-0.4443359
2098,-0.125,0,-0.1875,0.003417969,0,0.9790039,-0.2246094,-0.1923828,-0.4443359
2100,-0.1875,-0.1875,-0.0625,-0.007324219,0.007324219,0.9633789,-0.2246094,-0.1923828,-0.4443359
2102,-0.3125,-0.375,-0.125,-0.01513672,0.01513672,0.9594727,-0.2246094,-0.1923828,-0.4443359
2104,-0.3125,-0.375,-0.125,-0.003417969,0,0.9985352,-0.222168,-0.1948242,-0.4443359
2106,0.125,-0.0625,-0.25,-0.02685547,-0.003417969,0.9985352,-0.222168,-0.1948242,-0.4443359
2108,-0.125,0.0625,-0.0625,-0.01513672,-0.01513672,1.013672,-0.222168,-0.1948242,-0.4443359
2110,0,0,-0.125,-0.01513672,0,0.9907227,-0.222168,-0.1948242,-0.4443359
2112,0.0625,0,-0.0625,-0.01904297,-0.003417969,0.9672852,-0.222168,-0.1948242,-0.4443359
2114,-0.125,0,-0.1875,-0.01904297,0,0.9750977,-0.222168,-0.1948242,-0.4443359
2116,-0.0625,0,-0.125,-0.02294922,0.003417969,0.9907227,-0.222168,-0.1948242,-0.4443359
2118,-0.3125,-0.0625,-0.3125,0.003417969,0,0.9829102,-0.2319336,-0.1879883,-0.449707
2120,-0.125,-0.3125,-0.125,0.007324219,0,1.009766,-0.2319336,-0.1879883,-0.449707
2122,-0.1875,-0.25,-0.125,0.007324219,-0.003417969,1.029297,-0.2319336,-0.1879883,-0.449707
2124,-0.0625,0,-0.25,-0.02294922,0.003417969,1.005859,-0.2202148,-0.1899414,-0.4467773
2126,0.0625,0.0625,0,-0.007324219,-0.007324219,0.9985352,-0.2202148,-0.1899414,-0.4467773
2128,-0.0625,0.125,-0.125,0.007324219,-0.01513672,0.9750977,-0.2202148,-0.1899414,-0.4467773
2130,0,0.0625,-0.0625,-0.01904297,-0.01123047,0.9594727,-0.2294922,-0.1948242,-0.4365234
2132,-0.0625,0.125,-0.1875,0,-0.007324219,0.9633789,-0.2294922,-0.1948242,-0.4365234
2134,0.0625,0,-0.3125,0.01513672,0,0.9516602,-0.2294922,-0.1948242,-0.4365234
2138,-0.1875,-0.1875,-0.4375,-0.007324219,-0.007324219,1.001953,-0.2294922,-0.1948242,-0.4365234
2140,0,0.0625,-0.125,-0.02294922,0.007324219,1.029297,-0.2338867,-0.1831055,-0.4467773
2142,-0.375,-0.25,0,0.007324219,0,1.013672,-0.2338867,-0.1831055,-0.4467773
2144,-0.0625,0,-0.1875,-0.01123047,0.007324219,0.9907227,-0.2338867,-0.1831055,-0.4467773
2146,-0.0625,0,-0.25,-0.03466797,0.007324219,0.9711914,-0.2319336,-0.1923828,-0.4418945
2148,-0.0625,0,0,-0.02685547,0,0.9750977,-0.2319336,-0.1923828,-0.4418945
2150,-0.0625,0,-0.3125,-0.01123047,-0.007324219,0.9633789,-0.2319336,-0.1923828,-0.4418945
2152,0,-0.1875,-0.125,-0.01904297,0,0.9594727,-0.222168,-0.1811523,-0.4467773
2154,-0.1875,-0.1875,-0.3125,-0.01513672,-0.01513672,0.9790039,-0.222168,-0.1811523,-0.4467773
2156,-0.125,0.0625,-0.0625,-0.01123047,0.007324219,0.9868164,-0.222168,-0.1811523,-0.4467773
2158,0,0,-0.25,-0.02294922,0,0.9829102,-0.222168,-0.1811523,-0.4467773
2160,-0.0625,-0.0625,-0.125,-0.01123047,0.01904297,0.9868164,-0.222168,-0.1811523,-0.4467773
2162,0.0625,0,-0.1875,0.003417969,0.03076172,1.017578,-0.222168,-0.1811523,-0.4467773
2164,-0.0625,-0.1875,-0.125,-0.03857422,0.01513672,1.013672,-0.222168,-0.1811523,-0.4467773
2166,-0.3125,0,-0.4375,-0.01513672,0.03076172,0.9711914,-0.2270508,-0.1811523,-0.4443359
2168,-0.1875,-0.1875,-0.3125,0,0.01904297,0.9985352,-0.2270508,-0.1811523,-0.4443359
2170,0.125,-0.1875,-0.0625,-0.007324219,0.003417969,0.9829102,-0.2270508,-0.1811523,-0.4443359
2172,-0.125,0.125,-0.125,-0.01513672,0.01123047,0.9790039,-0.2246094,-0.1923828,-0.4394531
2174,0,-0.0625,-0.25,-0.003417969,-0.01513672,0.9633789,-0.2246094,-0.1923828,-0.4394531
2176,0,0,-0.25,-0.01123047,0.01123047,1.001953,-0.2246094,-0.1923828,-0.4394531
2178,0,0,-0.0625,-0.003417969,0.007324219,0.9829102,-0.2246094,-0.1879883,-0.4570313
2180,0,0,-0.0625,0,-0.003417969,1.001953,-0.2246094,-0.1879883,-0.4570313
2182,-0.1875,-0.25,-0.3125,0.01123047,-0.01513672,0.9985352,-0.2246094,-0.1879883,-0.4570313
2184,-0.375,-0.1875,0,0,0,0.9907227,-0.2246094,-0.1879883,-0.4570313
2186,-0.375,0,-0.4375,-0.007324219,-0.01513672,0.9829102,-0.2270508,-0.1879883,-0.4394531
2188,0,0.125,0,0.003417969,0.007324219,0.9750977,-0.2270508,-0.1879883,-0.4394531
2190,-0.0625,0,0,-0.01904297,0.003417969,0.9711914,-0.2270508,-0.1879883,-0.4394531
2192,0.1875,0,-0.25,-0.02294922,-0.003417969,0.9477539,-0.2270508,-0.1923828,-0.4443359
2194,0,-0.1875,-0.1875,0.007324219,0.01904297,0.9829102,-0.2270508,-0.1923828,-0.4443359
2196,-0.1875,0,-0.125,-0.03466797,0.02294922,0.9633789,-0.2270508,-0.1923828,-0.4443359
2198,0,0.0625,-0.0625,-0.02685547,0,0.9985352,-0.2270508,-0.1923828,-0.4467773
2200,-0.1875,0,-0.25,-0.003417969,0,1.005859,-0.2270508,-0.1923828,-0.4467773
2202,-0.0625,-0.0625,-0.125,0.007324219,0.01123047,0.9868164,-0.2270508,-0.1923828,-0.4467773
2204,-0.125,-0.0625,-0.1875,-0.01904297,0,0.9946289,-0.2270508,-0.1923828,-0.4467773
2206,-0.125,-0.1875,-0.1875,0.003417969,0.01513672,0.9750977,-0.2270508,-0.1923828,-0.4467773
2208,-0.1875,-0.1875,-0.1875,0,0.02294922,0.9672852,-0.2270508,-0.1923828,-0.4467773
2210,-0.0625,-0.0625,-0.125,-0.01123047,0.01123047,0.9985352,-0.2270508,-0.1923828,-0.4467773
2212,0,-0.25,-0.0625,-0.007324219,0.003417969,0.9750977,-0.2294922,-0.1879883,-0.4467773
2214,0,-0.1875,-0.3125,-0.02294922,-0.01123047,0.9829102,-0.2294922,-0.1879883,-0.4467773
2216,-0.0625,-0.0625,0,-0.007324219,0.007324219,0.9790039,-0.2294922,-0.1879883,-0.4467773
2218,-0.0625,-0.25,0,-0.007324219,0.003417969,0.9946289,-0.2270508,-0.1811523,-0.4443359
2220,-0.3125,0,-0.3125,-0.007324219,0,0.9750977,-0.2270508,-0.1811523,-0.4443359
2222,-0.125,0,-0.125,-0.007324219,0.007324219,0.9985352,-0.2270508,-0.1811523,-0.4443359
2224,0,-0.3125,-0.25,-0.007324219,-0.01513672,0.9672852,-0.2319336,-0.1831055,-0.449707
2226,-0.1875,-0.0625,-0.125,-0.003417969,0.01904297,0.9907227,-0.2319336,-0.1831055,-0.449707
2228,0,-0.0625,-0.1875,-0.02685547,-0.007324219,0.9985352,-0.2319336,-0.1831055,-0.449707
2230,0,-0.1875,-0.1875,-0.01123047,0,0.9750977,-0.2319336,-0.1831055,-0.449707
2232,-0.3125,0,-0.0625,-0.007324219,0.003417969,0.9946289,-0.2246094,-0.1879883,-0.4418945
2234,-0.0625,0,-0.0625,-0.007324219,-0.003417969,0.9868164,-0.2246094,-0.1879883,-0.4418945
2236,-0.0625,-0.1875,-0.1875,-0.01123047,-0.003417969,0.9907227,-0.2246094,-0.1879883,-0.4418945
2238,-0.1875,0.0625,-0.3125,-0.01513672,0.007324219,0.9672852,-0.2319336,-0.1787109,-0.4418945
2240,-0.125,0,0,0.007324219,0.003417969,1.001953,-0.2319336,-0.1787109,-0.4418945
2242,0,0,-0.1875,-0.003417969,0,0.9868164,-0.2319336,-0.1787109,-0.4418945
2244,-0.0625,0.125,-0.1875,-0.01123047,-0.007324219,1.001953,-0.2202148,-0.1811523,-0.434082
2246,-0.0625,-0.0625,-0.0625,-0.01123047,0.01513672,0.9711914,-0.2202148,-0.1811523,-0.434082
2248,0,-0.1875,-0.125,-0.01513672,-0.003417969,0.9750977,-0.2202148,-0.1811523,-0.434082
2250,-0.0625,0,-0.125,-0.01904297,0.02685547,0.9711914,-0.2177734,-0.1948242,-0.4443359
2252,-0.0625,-0.1875,-0.125,-0.01513672,0,0.9750977,-0.2177734,-0.1948242,-0.4443359
2254,-0.875,-2,-0.1875,-0.05810547,0.007324219,0.7719727,-0.2177734,-0.1948242,-0.4443359
2256,-0.8125,-3.875,-0.1875,0.128418,0.003417969,0.7875977,-0.2177734,-0.1948242,-0.4443359
2258,-0.8125,-3,-0.25,0.1166992,-0.03076172,1.201172,-0.2319336,-0.1879883,-0.4467773
2260,0,0,-0.4375,0.05419922,-0.01904297,1.415527,-0.2319336,-0.1879883,-0.4467773
2262,0.625,2.4375,0.0625,0.04248047,-0.02294922,1.36084,-0.2319336,-0.1879883,-0.4467773
2264,0.625,3,-0.0625,0.007324219,-0.01513672,0.8422852,-0.2319336,-0.1831055,-0.4545898
2267,0.4375,1.5,0,-0.02685547,0.01904297,0.8110352,-0.2319336,-0.1831055,-0.4545898
2269,0.125,0.0625,-0.3125,-0.04638672,0.01904297,0.8696289,-0.2319336,-0.1831055,-0.4545898
2271,-0.625,-0.1875,-0.1875,-0.03076172,0.04638672,0.9282227,-0.2294922,-0.1899414,-0.4443359
2273,-0.4375,-0.625,-0.3125,-0.03466797,0.003417969,0.8461914,-0.2294922,-0.1899414,-0.4443359
2275,-0.5,-0.5625,-0.3125,-0.01513672,-0.01904297,0.9047852,-0.2294922,-0.1899414,-0.4443359
2277,0.125,-0.5625,-0.4375,0.03076172,-0.04638672,0.9360352,-0.2294922,-0.1899414,-0.4443359
2279,0.1875,0.125,0,0.03076172,-0.02685547,1.064453,-0.2294922,-0.1899414,-0.4443359
2281,0.0625,0.1875,0,-0.003417969,-0.007324219,1.048828,-0.2294922,-0.1899414,-0.4443359
2283,-0.1875,0.5625,-0.0625,-0.02294922,0.01123047,0.9985352,-0.2294922,-0.1899414,-0.4443359
2285,0,0.25,0,-0.02685547,0.03076172,0.9360352,-0.2246094,-0.2016602,-0.449707
2287,-0.0625,-0.25,-0.1875,-0.04248047,0.01123047,1.005859,-0.2246094,-0.2016602,-0.449707
2289,0,-0.1875,-0.3125,-0.01904297,0.02294922,1.025391,-0.2246094,-0.2016602,-0.449707
2291,-0.0625,-0.375,-0.25,0.01513672,0.007324219,0.9750977,-0.2270508,-0.1899414,-0.4521484
2293,-0.1875,-0.25,-0.1875,0.01513672,-0.01123047,0.9868164,-0.2270508,-0.1899414,-0.4521484
2295,-0.125,-0.25,-0.375,0.003417969,0.003417969,0.9868164,-0.2270508,-0.1899414,-0.4521484
2297,-0.0625,0,-0.25,0.007324219,-0.007324219,0.9711914,-0.2246094,-0.1855469,-0.4443359
2299,-0.0625,0.3125,-0.125,-0.01904297,-0.01513672,0.9399414,-0.2246094,-0.1855469,-0.4443359
2301,0,0.0625,-0.0625,-0.05029297,0.03466797,0.8930664,-0.2246094,-0.1855469,-0.4443359
2303,0.25,-0.0625,0,-0.03857422,0.01513672,0.9594727,-0.2246094,-0.1855469,-0.4443359
2305,0.125,-0.25,-0.125,-0.03466797,0.003417969,0.9672852,-0.2338867,-0.1899414,-0.4521484
2307,-0.3125,-0.25,-0.4375,-0.01904297,-0.003417969,1.033203,-0.2338867,-0.1899414,-0.4521484
2309,-0.4375,-0.3125,-0.25,0.01513672,-0.01513672,1.048828,-0.2338867,-0.1899414,-0.4521484
2311,-0.4375,-0.0625,-0.1875,0,-0.03857422,1.044922,-0.2246094,-0.1879883,-0.4443359
2313,0,0.1875,-0.125,-0.007324219,-0.01123047,0.9946289,-0.2246094,-0.1879883,-0.4443359
2315,0,0.125,-0.0625,-0.01123047,-0.01904297,0.9555664,-0.2246094,-0.1879883,-0.4443359
2317,0.125,0.375,-0.0625,-0.03857422,0.007324219,0.8969727,-0.2246094,-0.1831055,-0.4365234
2319,0.0625,0.125,-0.0625,-0.04248047,0.003417969,0.9047852,-0.2246094,-0.1831055,-0.4365234
2321,0,0,-0.1875,-0.02294922,0,0.9399414,-0.2246094,-0.1831055,-0.4365234
2323,-0.0625,-0.375,-0.4375,-0.003417969,0,1.001953,-0.2246094,-0.1831055,-0.4365234
2325,0,-0.3125,-0.25,-0.007324219,0.01904297,1.001953,-0.2246094,-0.1831055,-0.4365234
2327,-0.3125,0,-0.0625,0,-0.003417969,1.041016,-0.2246094,-0.1831055,-0.4365234
2329,-0.125,0,-0.125,-0.003417969,0,1.025391,-0.2246094,-0.1831055,-0.4365234
2331,-0.125,0.1875,-0.0625,-0.007324219,0.01513672,0.9868164,-0.2294922,-0.2016602,-0.4443359
2333,-0.1875,0.0625,-0.1875,-0.01513672,0.01904297,0.9438477,-0.2294922,-0.2016602,-0.4443359
2335,0,0.0625,-0.0625,-0.01123047,0,0.9399414,-0.2294922,-0.2016602,-0.4443359
2337,0,-0.5,-0.3125,-0.01513672,0.007324219,0.9243164,-0.222168,-0.1972656,-0.4443359
2339,0,-0.3125,-0.125,-0.003417969,0.03076172,0.9711914,-0.222168,-0.1972656,-0.4443359
2341,0.0625,0,-0.0625,-0.007324219,0,0.9868164,-0.222168,-0.1972656,-0.4443359
2343,0,0,-0.25,-0.01513672,-0.003417969,0.9946289,-0.2202148,-0.1992188,-0.4443359
2345,-0.25,-0.0625,0.0625,-0.003417969,0,1.017578,-0.2202148,-0.1992188,-0.4443359
2347,0,0,-0.125,-0.003417969,0.003417969,1.005859,-0.2202148,-0.1992188,-0.4443359
2349,-0.1875,0,-0.0625,-0.01904297,0.01904297,0.9946289,-0.2202148,-0.1992188,-0.4443359
2351,0,0,-0.25,-0.02294922,0.01123047,0.9907227,-0.2319336,-0.1923828,-0.449707
2353,-0.0625,-0.25,0,-0.02685547,-0.01513672,0.9985352,-0.2319336,-0.1923828,-0.449707
2355,0.0625,-0.3125,-0.125,0,-0.003417969,0.9907227,-0.2319336,-0.1923828,-0.449707
2357,-0.0625,0,0,-0.007324219,-0.02294922,0.9985352,-0.2294922,-0.1899414,-0.4545898
2359,0,0.0625,-0.125,-0.01904297,-0.003417969,0.9907227,-0.2294922,-0.1899414,-0.4545898
2361,-0.125,0.25,-0.25,0,0.01123047,0.9790039,-0.2294922,-0.1899414,-0.4545898
2363,0,0.0625,-0.125,-0.03466797,0.007324219,0.9594727,-0.2270508,-0.1923828,-0.449707
2365,-0.1875,0,-0.125,0,0,0.9790039,-0.2270508,-0.1923828,-0.449707
2367,-0.125,-0.25,0,-0.003417969,0,1.001953,-0.2270508,-0.1923828,-0.449707
2369,-0.0625,-0.25,-0.3125,0.007324219,0.01123047,1.001953,-0.2270508,-0.1923828,-0.449707
2371,-0.1875,-0.375,-0.125,0,0.003417969,1.005859,-0.2270508,-0.1923828,-0.449707
2373,-0.0625,-0.1875,0,-0.01123047,0.003417969,1.013672,-0.2270508,-0.1923828,-0.449707
2375,0,0.125,-0.1875,0.003417969,-0.02294922,0.9907227,-0.2270508,-0.1923828,-0.449707
2377,0,0,-0.125,-0.01904297,-0.01513672,0.9555664,-0.2294922,-0.1831055,-0.4467773
2379,0,-0.0625,-0.0625,-0.01513672,0,0.9360352,-0.2294922,-0.1831055,-0.4467773
2381,-0.125,0,-0.125,-0.007324219,-0.003417969,0.9594727,-0.2294922,-0.1831055,-0.4467773
2383,0,0.0625,-0.1875,-0.04638672,0,0.9672852,-0.2246094,-0.1879883,-0.4316406
2385,0,0,-0.0625,0,-0.003417969,0.9868164,-0.2246094,-0.1879883,-0.4316406
2387,-0.0625,0,-0.1875,0,0.007324219,1.013672,-0.2246094,-0.1879883,-0.4316406
2389,-0.1875,0,-0.125,0.003417969,0.003417969,1.005859,-0.2246094,-0.1831055,-0.449707
2391,-0.0625,0,-0.125,-0.007324219,-0.003417969,1.013672,-0.2246094,-0.1831055,-0.449707
2393,0,0.0625,-0.1875,-0.02294922,0.003417969,0.9750977,-0.2246094,-0.1831055,-0.449707
2396,-0.0625,0,-0.25,-0.007324219,0.01123047,0.9672852,-0.2246094,-0.1831055,-0.449707
2398,-0.0625,-0.0625,-0.3125,-0.02294922,0,0.9672852,-0.2202148,-0.1831055,-0.449707
2400,-0.1875,-0.1875,0,-0.02685547,-0.01123047,0.9516602,-0.2202148,-0.1831055,-0.449707
2402,0,0,-0.125,-0.003417969,-0.007324219,0.9907227,-0.2202148,-0.1831055,-0.449707
2404,-0.125,0,-0.125,0,0,0.9985352,-0.222168,-0.1855469,-0.4443359
2406,-0.125,-0.25,0,0.003417969,0.007324219,0.9868164,-0.222168,-0.1855469,-0.4443359
2408,-0.25,-0.0625,-0.0625,-0.007324219,-0.003417969,1.001953,-0.222168,-0.1855469,-0.4443359
2410,-0.125,0,-0.1875,0,0.01513672,0.9985352,-0.222168,-0.1899414,-0.4467773
2412,-0.0625,-0.1875,-0.0625,-0.01904297,0.007324219,1.009766,-0.222168,-0.1899414,-0.4467773
2414,0,-0.0625,-0.1875,-0.01123047,0.01123047,0.9868164,-0.222168,-0.1899414,-0.4467773
2416,-0.0625,0,-0.25,-0.03076172,-0.003417969,0.9985352,-0.222168,-0.1811523,-0.4418945
2418,-0.0625,-0.375,-0.25,0.01513672,0.003417969,0.9868164,-0.222168,-0.1811523,-0.4418945
2420,0,-0.0625,-0.25,-0.003417969,-0.007324219,0.9750977,-0.222168,-0.1811523,-0.4418945
2422,0,0,-0.25,-0.003417969,-0.007324219,0.9829102,-0.222168,-0.1811523,-0.4418945
2424,0,-0.25,0,-0.007324219,0,0.9790039,-0.2270508,-0.1831055,-0.4443359
2426,0,0,0,-0.03076172,-0.007324219,0.9829102,-0.2270508,-0.1831055,-0.4443359
2428,-0.1875,0,-0.1875,-0.01513672,0.003417969,0.9790039,-0.2270508,-0.1831055,-0.4443359
2430,0,-0.0625,-0.1875,-0.02294922,0,0.9907227,-0.2270508,-0.1879883,-0.4316406
2432,-0.125,0.0625,0,-0.01513672,-0.003417969,0.9985352,-0.2270508,-0.1879883,-0.4316406
2434,-0.1875,0,-0.0625,-0.007324219,-0.01123047,1.001953,-0.2270508,-0.1879883,-0.4316406
2436,-0.1875,-0.0625,-0.25,-0.02685547,-0.02294922,1.005859,-0.2319336,-0.1923828,-0.4521484
2438,0,0,-0.1875,-0.01123047,-0.02685547,0.9672852,-0.2319336,-0.1923828,-0.4521484
2440,0.125,0,-0.125,-0.01123047,-0.003417969,0.9672852,-0.2319336,-0.1923828,-0.4521484
2442,-0.0625,-0.25,-0.25,-0.01513672,0.007324219,0.9829102,-0.2319336,-0.1923828,-0.4521484
2444,0,0,-0.0625,-0.01513672,-0.007324219,0.9829102,-0.2319336,-0.1923828,-0.4521484
2446,-0.0625,0,-0.4375,0,0,0.9750977,-0.2319336,-0.1923828,-0.4521484
2448,0,0,-0.0625,-0.003417969,-0.01123047,0.9985352,-0.2319336,-0.1923828,-0.4521484
2450,0,-0.1875,-0.25,-0.02685547,-0.003417969,1.005859,-0.2294922,-0.1855469,-0.449707
2452,0,0.0625,-0.125,-0.02685547,0.01123047,0.9985352,-0.2294922,-0.1855469,-0.449707
2454,0,0,-0.125,-0.003417969,-0.003417969,1.005859,-0.2294922,-0.1855469,-0.449707
2456,0,-0.25,-0.1875,-0.01123047,0.01123047,0.9750977,-0.2270508,-0.1899414,-0.4365234
2458,0,-0.0625,-0.0625,-0.003417969,0.01123047,0.9633789,-0.2270508,-0.1899414,-0.4365234
2460,-0.125,-0.1875,0,-0.01904297,0.007324219,0.9594727,-0.2270508,-0.1899414,-0.4365234
2462,0,-0.3125,-0.0625,-0.02685547,0.01904297,0.9829102,-0.2270508,-0.1879883,-0.4443359
2464,-0.0625,0,0,-0.02685547,0.01513672,0.9829102,-0.2270508,-0.1879883,-0.4443359
2466,-0.0625,0,-0.125,-0.003417969,-0.003417969,0.9790039,-0.2270508,-0.1879883,-0.4443359
2468,-0.125,-0.25,-0.3125,-0.003417969,0.007324219,0.9790039,-0.2270508,-0.1879883,-0.4443359
2470,0,-0.0625,-0.125,-0.01123047,0.003417969,0.9946289,-0.2319336,-0.1923828,-0.4443359
2472,0.0625,-0.0625,-0.25,-0.02685547,-0.01513672,1.001953,-0.2319336,-0.1923828,-0.4443359
2474,-0.125,0,-0.25,-0.01123047,-0.01123047,0.9907227,-0.2319336,-0.1923828,-0.4443359
2476,-0.0625,-0.0625,-0.1875,0,0.003417969,0.9868164,-0.2319336,-0.1831055,-0.4365234
2478,-0.0625,-0.375,0,-0.007324219,-0.003417969,1.001953,-0.2319336,-0.1831055,-0.4365234
2480,-0.1875,-0.1875,-0.0625,0,-0.007324219,0.9829102,-0.2319336,-0.1831055,-0.4365234
2482,-0.1875,0.0625,-0.1875,-0.01123047,-0.01123047,0.9868164,-0.2338867,-0.1879883,-0.4467773
2484,0.0625,-0.0625,-0.0625,-0.02685547,-0.007324219,0.9711914,-0.2338867,-0.1879883,-0.4467773
2486,-0.1875,-0.0625,-0.1875,0,0.01123047,0.9946289,-0.2338867,-0.1879883,-0.4467773
2488,-0.125,0,-0.1875,-0.01123047,-0.01904297,0.9790039,-0.2338867,-0.1879883,-0.4467773
2490,0,-0.125,0,-0.02685547,0.003417969,0.9907227,-0.2338867,-0.1879883,-0.4467773
2492,0,0,-0.0625,-0.007324219,-0.01904297,1.001953,-0.2338867,-0.1879883,-0.4467773
2494,-0.0625,0,-0.125,-0.02294922,-0.01513672,0.9790039,-0.2338867,-0.1879883,-0.4467773
2496,-0.125,-0.0625,-0.4375,-0.003417969,0,0.9946289,-0.2246094,-0.1879883,-0.4443359
2498,0,-0.0625,-0.125,-0.01904297,0,0.9790039,-0.2246094,-0.1879883,-0.4443359
2500,-0.6875,-4,-0.3125,0.1206055,-0.01513672,0.8071289,-0.2246094,-0.1879883,-0.4443359
2502,-0.4375,-4,0.0625,-0.09326172,-0.02685547,0.9047852,-0.2294922,-0.1855469,-0.4467773
2504,0,-3.75,-0.1875,0.07763672,0.02294922,1.021484,-0.2294922,-0.1855469,-0.4467773
2506,0.5625,0.8125,-0.3125,0.05029297,-0.03076172,1.466309,-0.2294922,-0.1855469,-0.4467773
2508,0.6875,2.5,0,0.03466797,-0.03466797,1.115234,-0.2270508,-0.1879883,-0.449707
2510,0.75,2.75,0.0625,-0.01513672,0.01513672,0.9204102,-0.2270508,-0.1879883,-0.449707
2512,0.25,1.1875,-0.0625,-0.06591797,0.02685547,0.8266602,-0.2270508,-0.1879883,-0.449707
2514,0.5625,-0.3125,-0.25,-0.05029297,0.01904297,0.8383789,-0.2270508,-0.1879883,-0.449707
2516,-0.75,-0.4375,-0.1875,-0.05029297,0.007324219,0.9790039,-0.2363281,-0.1972656,-0.4394531
2518,-0.6875,-0.5,-0.4375,-0.04248047,0,0.8305664,-0.2363281,-0.1972656,-0.4394531
2520,-0.3125,-0.5625,-0.25,0.01513672,-0.01513672,0.8852539,-0.2363281,-0.1972656,-0.4394531
2522,0.125,-0.5625,-0.25,0.01513672,-0.03857422,0.9985352,-0.222168,-0.1923828,-0.449707
2525,0.125,0,-0.0625,0.007324219,-0.01513672,1.060547,-0.222168,-0.1923828,-0.449707
2527,0.125,0.125,0,-0.02685547,-0.01123047,1.080078,-0.222168,-0.1923828,-0.449707
2529,-0.1875,0.8125,0,-0.03857422,0.01123047,0.9907227,-0.2319336,-0.1948242,-0.4467773
2531,-0.0625,0.25,-0.125,-0.02685547,0.04248047,0.9711914,-0.2319336,-0.1948242,-0.4467773
2533,0,0,-0.1875,-0.003417969,0.03857422,0.9985352,-0.2319336,-0.1948242,-0.4467773
2535,-0.0625,-0.25,-0.4375,-0.01513672,0.02294922,0.9946289,-0.2319336,-0.1948242,-0.4467773
2537,0,-0.3125,-0.4375,0.007324219,0.01904297,1.009766,-0.2319336,-0.1948242,-0.4467773
2539,-0.375,0,-0.25,0.01904297,-0.03076172,0.9711914,-0.2319336,-0.1948242,-0.4467773
2541,-0.125,-0.5,-0.125,0.02685547,-0.02294922,0.9790039,-0.2319336,-0.1948242,-0.4467773
2543,-0.0625,0,-0.0625,0.03076172,0.01123047,0.9829102,-0.2177734,-0.1948242,-0.4467773
2545,-0.0625,0.1875,-0.0625,0.007324219,-0.007324219,0.9360352,-0.2177734,-0.1948242,-0.4467773
2547,0.0625,0.3125,-0.0625,-0.02294922,-0.003417969,0.9555664,-0.2177734,-0.1948242,-0.4467773
2549,0.0625,0,-0.3125,-0.03076172,0.03076172,0.9477539,-0.2270508,-0.1879883,-0.4467773
2551,-0.125,-0.1875,-0.1875,-0.01904297,0.03466797,1.029297,-0.2270508,-0.1879883,-0.4467773
2553,-0.1875,-0.375,-0.375,-0.01904297,-0.007324219,1.033203,-0.2270508,-0.1879883,-0.4467773
2555,-0.4375,-0.3125,-0.25,-0.003417969,-0.007324219,1.064453,-0.2202148,-0.1831055,-0.4365234
2557,-0.1875,-0.0625,-0.125,0.02294922,-0.01904297,1.033203,-0.2202148,-0.1831055,-0.4365234
2559,0,0.25,0,0,-0.007324219,1.001953,-0.2202148,-0.1831055,-0.4365234
2561,0,0.25,-0.0625,-0.003417969,-0.01123047,0.9555664,-0.2202148,-0.1831055,-0.4365234
2563,0,0.5625,0,-0.01904297,-0.003417969,0.9204102,-0.2202148,-0.1831055,-0.4365234
2565,0,0,-0.0625,-0.04248047,0.01904297,0.8930664,-0.2202148,-0.1831055,-0.4365234
2567,0,0,-0.1875,-0.03076172,0.01904297,0.9672852,-0.2202148,-0.1831055,-0.4365234
2569,0,-0.25,-0.4375,-0.02685547,0.007324219,0.9946289,-0.2270508,-0.1923828,-0.4418945
2571,-0.25,-0.25,-0.4375,-0.003417969,0.003417969,1.025391,-0.2270508,-0.1923828,-0.4418945
2573,-0.0625,0,-0.3125,-0.007324219,0.003417969,1.052734,-0.2270508,-0.1923828,-0.4418945
2575,0.0625,0,0,0,0,1.005859,-0.2294922,-0.1879883,-0.4467773
2577,0,0.0625,0,-0.01123047,0,0.9750977,-0.2294922,-0.1879883,-0.4467773
2579,-0.25,-0.1875,-0.4375,-0.01123047,0.01123047,0.9790039,-0.2294922,-0.1879883,-0.4467773
2581,0,0.0625,-0.0625,-0.02294922,-0.003417969,0.9438477,-0.222168,-0.1899414,-0.4521484
2583,0.0625,-0.0625,-0.375,-0.01123047,0,0.9555664,-0.222168,-0.1899414,-0.4521484
2585,0,0,-0.4375,-0.01513672,0.007324219,0.9555664,-0.222168,-0.1899414,-0.4521484
2587,0,0.0625,-0.1875,-0.007324219,0.01904297,0.9438477,-0.222168,-0.1899414,-0.4521484
2589,-0.0625,0.0625,-0.125,-0.007324219,-0.003417969,0.9946289,-0.2319336,-0.1855469,-0.449707
2591,-0.0625,0,0,-0.007324219,0.007324219,0.9985352,-0.2319336,-0.1855469,-0.449707
2593,0,-0.125,-0.1875,-0.007324219,0,1.001953,-0.2319336,-0.1855469,-0.449707
2595,-0.1875,-0.0625,-0.1875,-0.02294922,0.01123047,0.9790039,-0.2294922,-0.1899414,-0.4316406
2597,-0.1875,-0.25,-0.125,-0.01904297,-0.003417969,0.9868164,-0.2294922,-0.1899414,-0.4316406
2599,-0.0625,-0.0625,-0.25,0.01513672,0,0.9750977,-0.2294922,-0.1899414,-0.4316406
2601,-0.1875,-0.3125,-0.4375,-0.007324219,0.003417969,0.9946289,-0.2270508,-0.1923828,-0.4394531
2603,-0.0625,0,-0.125,-0.01513672,0.007324219,0.9790039,-0.2270508,-0.1923828,-0.4394531
2605,-0.0625,0,-0.25,-0.01904297,-0.01513672,0.9750977,-0.2270508,-0.1923828,-0.4394531
2607,0,0.0625,-0.1875,-0.007324219,-0.003417969,0.9790039,-0.2270508,-0.1923828,-0.4394531
2609,0.125,0.0625,-0.3125,-0.02294922,-0.007324219,0.9672852,-0.2270508,-0.1923828,-0.4394531
2611,0,-0.0625,-0.125,-0.01904297,-0.01513672,0.9672852,-0.2270508,-0.1923828,-0.4394531
2613,0,-0.25,-0.125,-0.01123047,-0.01513672,0.9907227,-0.2270508,-0.1923828,-0.4394531
2615,-0.25,-0.0625,-0.0625,0.003417969,0,1.001953,-0.2177734,-0.1879883,-0.4418945
2617,-0.0625,0,-0.0625,-0.003417969,-0.003417969,1.009766,-0.2177734,-0.1879883,-0.4418945
2619,0,-0.0625,0,0,0.01123047,1.013672,-0.2177734,-0.1879883,-0.4418945
2621,0,0.0625,-0.125,-0.007324219,-0.01513672,0.9672852,-0.2338867,-0.1923828,-0.434082
2623,-0.1875,0,-0.0625,0,0.003417969,0.9633789,-0.2338867,-0.1923828,-0.434082
2625,-0.125,0,-0.0625,-0.01904297,0,0.9360352,-0.2338867,-0.1923828,-0.434082
2627,0.125,0.0625,-0.125,-0.01513672,0.003417969,0.9750977,-0.2246094,-0.1811523,-0.4418945
2629,-0.0625,0,-0.1875,0.007324219,0.003417969,0.9672852,-0.2246094,-0.1811523,-0.4418945
2631,-0.125,-0.3125,-0.25,-0.02294922,0,0.9907227,-0.2246094,-0.1811523,-0.4418945
2633,0,0,-0.1875,-0.01123047,0.003417969,1.005859,-0.2246094,-0.1811523,-0.4418945
2635,0,0,-0.1875,0,-0.007324219,1.029297,-0.222168,-0.1923828,-0.4521484
2637,-0.125,-0.0625,-0.25,-0.01904297,-0.01123047,1.013672,-0.222168,-0.1923828,-0.4521484
2639,-0.3125,0,-0.25,-0.01513672,0.01904297,0.9946289,-0.222168,-0.1923828,-0.4521484
2641,0,0,-0.3125,-0.02685547,-0.01904297,0.9672852,-0.2246094,-0.1972656,-0.4365234
2643,-0.125,0,-0.0625,-0.01904297,0.003417969,0.9360352,-0.2246094,-0.1972656,-0.4365234
2645,-0.125,-0.0625,-0.25,0.003417969,-0.01123047,0.9672852,-0.2246094,-0.1972656,-0.4365234
2647,0,0,-0.25,-0.01513672,-0.003417969,0.9868164,-0.2270508,-0.1948242,-0.4418945
2649,-0.3125,0.125,0,0.003417969,-0.02294922,0.9750977,-0.2270508,-0.1948242,-0.4418945
2651,-0.125,-0.0625,-0.0625,-0.02685547,-0.01904297,0.9868164,-0.2270508,-0.1948242,-0.4418945
2655,0,-0.0625,-0.1875,-0.02294922,0.01904297,0.9907227,-0.2270508,-0.1948242,-0.4418945
2657,-0.0625,0,-0.1875,0.01513672,0.01123047,0.9868164,-0.2270508,-0.1948242,-0.4418945
2659,-0.0625,0,-0.1875,0.003417969,0.01123047,0.9985352,-0.2270508,-0.1948242,-0.4418945
2661,-0.0625,-0.125,-0.1875,-0.02294922,0.01123047,0.9790039,-0.2270508,-0.1948242,-0.4418945
2663,-0.125,-0.1875,-0.3125,-0.03857422,0.01513672,0.9907227,-0.2202148,-0.1948242,-0.4418945
2665,0,-0.0625,-0.125,-0.02685547,-0.01904297,0.9790039,-0.2202148,-0.1948242,-0.4418945
2667,-0.0625,-0.125,-0.1875,-0.003417969,-0.01123047,0.9633789,-0.2202148,-0.1948242,-0.4418945
2669,-0.125,0,-0.1875,0.007324219,0.007324219,0.9750977,-0.2246094,-0.1811523,-0.4394531
2671,-0.125,-0.25,-0.0625,-0.007324219,-0.01904297,0.9711914,-0.2246094,-0.1811523,-0.4394531
2673,0,0.0625,-0.4375,0,0.01123047,0.9985352,-0.2246094,-0.1811523,-0.4394531
2675,0,0,-0.25,-0.01123047,-0.01904297,0.9672852,-0.222168,-0.1899414,-0.4394531
2677,-0.125,-0.3125,-0.125,-0.01904297,0.01123047,0.9750977,-0.222168,-0.1899414,-0.4394531
2679,-0.3125,0,-0.0625,-0.01513672,0,0.9985352,-0.222168,-0.1899414,-0.4394531
2681,-0.125,0,-0.25,-0.02685547,-0.003417969,0.9868164,-0.222168,-0.1899414,-0.4394531
2683,0,0,-0.125,-0.02294922,-0.007324219,0.9790039,-0.2294922,-0.1948242,-0.4443359
2685,-0.125,0,-0.0625,-0.007324219,0.007324219,0.9790039,-0.2294922,-0.1948242,-0.4443359
2687,0.125,0,0,-0.007324219,0.01123047,0.9672852,-0.2294922,-0.1948242,-0.4443359
2689,0,0.125,-0.0625,-0.03076172,0.003417969,0.9711914,-0.2319336,-0.1787109,-0.449707
2691,-0.1875,0,-0.125,-0.01513672,0.01904297,0.9790039,-0.2319336,-0.1787109,-0.449707
2693,0,0,-0.4375,-0.01513672,0.003417969,0.9946289,-0.2319336,-0.1787109,-0.449707
2695,0,0,0.125,-0.01904297,0.01513672,0.9907227,-0.2270508,-0.1972656,-0.449707
2697,0,-0.0625,-0.25,-0.003417969,0.003417969,1.005859,-0.2270508,-0.1972656,-0.449707
2699,-0.1875,0.125,-0.125,-0.01123047,0.01123047,1.009766,-0.2270508,-0.1972656,-0.449707
2701,-0.125,0.0625,-0.25,-0.003417969,0.01513672,0.9790039,-0.2270508,-0.2016602,-0.449707
2703,-0.125,0.125,-0.125,-0.007324219,-0.01123047,0.9711914,-0.2270508,-0.2016602,-0.449707
2705,0,0,-0.25,-0.007324219,0.01123047,0.9868164,-0.2270508,-0.2016602,-0.449707
2707,-0.125,0.0625,-0.1875,-0.01513672,0,0.9790039,-0.2270508,-0.2016602,-0.449707
2709,-0.125,0,-0.3125,-0.01123047,0.007324219,0.9711914,-0.2202148,-0.1879883,-0.449707
2711,0,0,-0.125,-0.01904297,0.007324219,0.9750977,-0.2202148,-0.1879883,-0.449707
2713,0,0,0,-0.02294922,-0.007324219,0.9829102,-0.2202148,-0.1879883,-0.449707
2715,0,-0.25,-0.125,-0.01904297,0.01513672,0.9946289,-0.2246094,-0.2016602,-0.4394531
2717,-0.125,0,-0.0625,-0.003417969,0.003417969,0.9907227,-0.2246094,-0.2016602,-0.4394531
2719,0,0,-0.1875,0.01513672,0.003417969,0.9907227,-0.2246094,-0.2016602,-0.4394531
2721,0.0625,-0.0625,-0.125,-0.003417969,0.003417969,0.9829102,-0.2177734,-0.1948242,-0.4394531
2723,0,0,-0.3125,-0.02294922,0.01123047,0.9868164,-0.2177734,-0.1948242,-0.4394531
2725,0,-0.3125,-0.0625,0,-0.01123047,0.9985352,-0.2177734,-0.1948242,-0.4394531
2727,-0.125,0,-0.1875,-0.003417969,-0.003417969,0.9829102,-0.2177734,-0.1948242,-0.4394531
2729,0,0,-0.125,0.007324219,-0.003417969,0.9672852,-0.2177734,-0.1948242,-0.4394531
2731,-0.1875,0,-0.25,-0.01904297,-0.007324219,0.9946289,-0.2177734,-0.1948242,-0.4394531
2733,0,0,-0.25,-0.01123047,0.01123047,0.9711914,-0.2177734,-0.1948242,-0.4394531
2735,-0.1875,0,-0.3125,0.003417969,-0.003417969,0.9907227,-0.2270508,-0.1899414,-0.4443359
2737,-0.125,0,-0.1875,-0.007324219,0,0.9868164,-0.2270508,-0.1899414,-0.4443359
2739,-0.0625,-0.1875,-0.125,-0.01513672,-0.01513672,0.9907227,-0.2270508,-0.1899414,-0.4443359
2741,-0.0625,0,-0.0625,-0.01123047,0.01123047,0.9868164,-0.222168,-0.1948242,-0.4467773
2743,-0.0625,-0.1875,-0.125,-0.03076172,0.01123047,0.9907227,-0.222168,-0.1948242,-0.4467773
2745,0,0.1875,-0.125,-0.02294922,0,1.005859,-0.222168,-0.1948242,-0.4467773
2747,0.0625,0,-0.0625,-0.01513672,0.007324219,0.9633789,-0.222168,-0.1948242,-0.4443359
2749,0,-0.3125,0,-0.03466797,-0.003417969,0.9946289,-0.222168,-0.1948242,-0.4443359
2751,-0.0625,0.0625,-0.25,-0.02294922,0.01904297,0.9907227,-0.222168,-0.1948242,-0.4443359
2753,0,0,-0.3125,0,0,0.9555664,-0.222168,-0.1948242,-0.4443359
2755,0,-0.0625,-0.125,-0.02685547,-0.01513672,1.013672,-0.2294922,-0.1923828,-0.4443359
2757,0,0,-0.0625,0,0,0.9790039,-0.2294922,-0.1923828,-0.4443359
2759,0,-0.0625,-0.25,-0.01513672,0.01513672,0.9907227,-0.2294922,-0.1923828,-0.4443359
2761,0,0,-0.0625,-0.007324219,-0.01513672,0.9790039,-0.2294922,-0.1879883,-0.4521484
2763,0,0.125,-0.1875,-0.01123047,-0.02294922,0.9790039,-0.2294922,-0.1879883,-0.4521484
2765,-0.0625,-0.25,-0.0625,0.007324219,0,0.9790039,-0.2294922,-0.1879883,-0.4521484
2767,-0.0625,0,-0.1875,-0.01123047,-0.01513672,0.9711914,-0.222168,-0.1899414,-0.4443359
2769,0,-0.1875,-0.125,-0.01513672,0.01123047,0.9868164,-0.222168,-0.1899414,-0.4443359
2771,-0.125,0,-0.1875,0,-0.007324219,0.9750977,-0.222168,-0.1899414,-0.4443359
2773,-0.1875,0,-0.25,-0.007324219,0.01513672,0.9633789,-0.222168,-0.1899414,-0.4443359
2775,-0.1875,-0.0625,-0.125,0,0,0.9790039,-0.222168,-0.1899414,-0.4443359
2777,0,-0.0625,-0.3125,-0.01123047,0.01123047,0.9907227,-0.222168,-0.1899414,-0.4443359
2779,0,0,-0.125,0,0.01123047,0.9790039,-0.222168,-0.1899414,-0.4443359
2781,-0.1875,-0.0625,-0.125,-0.007324219,0.007324219,0.9750977,-0.2319336,-0.1899414,-0.4443359
2784,-0.1875,0,-0.1875,-0.01513672,0.01123047,0.9868164,-0.2319336,-0.1899414,-0.4443359
2786,0,0,-0.125,-0.01123047,0.01123047,0.9907227,-0.2319336,-0.1899414,-0.4443359
2788,-0.125,0,-0.125,-0.01123047,0.003417969,0.9790039,-0.222168,-0.1992188,-0.4365234
2790,0,0,-0.1875,-0.003417969,-0.01513672,0.9868164,-0.222168,-0.1992188,-0.4365234
2792,-0.125,0,-0.1875,-0.007324219,-0.01513672,0.9868164,-0.222168,-0.1992188,-0.4365234
2794,-0.1875,0,-0.3125,-0.01904297,0,0.9750977,-0.2246094,-0.1923828,-0.4467773
2796,0,0,0,0.01904297,0.01123047,0.9790039,-0.2246094,-0.1923828,-0.4467773
2798,-0.125,-0.1875,0,0.007324219,-0.003417969,0.9790039,-0.2246094,-0.1923828,-0.4467773
2800,-0.125,0,-0.25,-0.007324219,-0.01123047,0.9946289,-0.2246094,-0.1923828,-0.4467773
2802,-0.125,-0.1875,-0.4375,-0.01513672,0.007324219,0.9711914,-0.2084961,-0.1923828,-0.4394531
2804,0,0.0625,-0.25,-0.01904297,0,0.9868164,-0.2084961,-0.1923828,-0.4394531
2806,-0.0625,-0.0625,-0.3125,0.003417969,-0.01123047,0.9711914,-0.2084961,-0.1923828,-0.4394531
2808,-0.0625,0,-0.1875,-0.01904297,0,0.9868164,-0.2202148,-0.2016602,-0.4467773
2810,0,-0.0625,0,-0.007324219,-0.01513672,0.9633789,-0.2202148,-0.2016602,-0.4467773
2812,-0.1875,0,-0.1875,-0.01123047,0.01513672,0.9750977,-0.2202148,-0.2016602,-0.4467773
2814,0,-0.0625,-0.0625,-0.007324219,0.01904297,0.9750977,-0.2202148,-0.1811523,-0.4467773
2816,-0.125,-0.0625,-0.1875,0,0.01513672,0.9985352,-0.2202148,-0.1811523,-0.4467773
2818,-0.0625,0,-0.0625,-0.007324219,0.007324219,0.9868164,-0.2202148,-0.1811523,-0.4467773
2820,0,0,-0.125,-0.003417969,0.007324219,0.9750977,-0.2202148,-0.1811523,-0.4467773
2822,-0.0625,0,-0.1875,0.007324219,0.01904297,0.9946289,-0.2202148,-0.1811523,-0.4467773
2824,-0.125,0,-0.1875,-0.01513672,-0.003417969,0.9790039,-0.2202148,-0.1811523,-0.4467773
2826,0,-0.0625,-0.0625,-0.01904297,-0.007324219,0.9946289,-0.2202148,-0.1811523,-0.4467773
2828,-0.125,0,-0.25,-0.01123047,0.01123047,0.9633789,-0.2177734,-0.1879883,-0.4467773
2830,0,0,-0.1875,-0.01123047,0.01123047,0.9985352,-0.2177734,-0.1879883,-0.4467773
2832,-0.0625,0,-0.1875,-0.007324219,0.003417969,0.9829102,-0.2177734,-0.1879883,-0.4467773
2834,0,-0.0625,-0.25,-0.01123047,0.003417969,0.9750977,-0.222168,-0.1899414,-0.4467773
2836,0,-0.0625,-0.125,-0.007324219,0.007324219,0.9829102,-0.222168,-0.1899414,-0.4467773
2838,-0.0625,0,-0.125,-0.007324219,-0.007324219,0.9907227,-0.222168,-0.1899414,-0.4467773
2840,0,-0.3125,-0.125,-0.01123047,0.01123047,1.001953,-0.222168,-0.1948242,-0.449707
2842,-0.0625,0.0625,-0.1875,-0.01904297,0.003417969,0.9790039,-0.222168,-0.1948242,-0.449707
2844,-0.1875,-0.3125,-0.125,-0.01904297,-0.007324219,0.9868164,-0.222168,-0.1948242,-0.449707
2846,-0.0625,0.0625,-0.25,-0.02294922,-0.007324219,0.9829102,-0.222168,-0.1948242,-0.449707
2848,-0.0625,-0.25,-0.0625,-0.01513672,-0.01123047,0.9829102,-0.2202148,-0.1948242,-0.4443359
2850,0,0.25,-0.1875,0,0.02294922,0.9790039,-0.2202148,-0.1948242,-0.4443359
2852,-0.125,0,-0.125,-0.01123047,-0.003417969,0.9829102,-0.2202148,-0.1948242,-0.4443359
2854,-0.3125,0,-0.1875,-0.01123047,0,0.9594727,-0.222168,-0.1972656,-0.4521484
2856,-0.0625,0,-0.3125,-0.02294922,-0.01513672,0.9946289,-0.222168,-0.1972656,-0.4521484
2858,-0.125,0,-0.125,0,0.01123047,0.9790039,-0.222168,-0.1972656,-0.4521484
2860,-0.0625,-0.0625,0,-0.02294922,0,0.9946289,-0.2246094,-0.1899414,-0.4443359
2862,0,0,-0.1875,0,0,0.9868164,-0.2246094,-0.1899414,-0.4443359
2864,-0.125,-0.0625,-0.25,0,0.003417969,1.013672,-0.2246094,-0.1899414,-0.4443359
