Packet Number,Gyroscope X (deg/s),Gyroscope Y (deg/s),Gyroscope Z (deg/s),Accelerometer X (g),Accelerometer Y (g),Accelerometer Z (g),Magnetometer X (G),Magnetometer Y (G),Magnetometer Z (G)
113,-3.25,0.75,0,-0.03857422,-0.003417969,0.9985352,-0.5205078,-0.8276367,-3.17627
117,-3.25,0.75,0,-0.03857422,-0.003417969,0.9985352,-0.5205078,-0.8276367,-3.17627
118,-2.8125,0.9375,0.1875,-0.003417969,0.003417969,1.025391,-0.5297852,-0.8232422,-3.184082
122,-3.0625,0.75,0.25,-0.01904297,-0.007324219,1.037109,-0.5297852,-0.8232422,-3.184082
123,-2.9375,0.8125,0,0,0.007324219,1.029297,-0.5297852,-0.8232422,-3.184082
127,-2.625,0.875,0.125,-0.01513672,-0.01513672,1.009766,-0.5161133,-0.8300781,-3.181641
128,-2.875,0.8125,0.0625,-0.01123047,-0.02294922,1.013672,-0.5161133,-0.8300781,-3.181641
132,-3.1875,0.5625,0.1875,-0.03076172,0,1.029297,-0.5161133,-0.8300781,-3.181641
133,-3,0.6875,0.0625,-0.03466797,-0.003417969,1.044922,-0.5205078,-0.8344727,-3.189453
137,-2.875,0.875,0.3125,-0.03076172,-0.01513672,1.044922,-0.5205078,-0.8344727,-3.189453
138,-2.75,0.5625,0.1875,-0.02685547,-0.003417969,1.044922,-0.5205078,-0.8344727,-3.189453
142,-3,0.75,0,-0.02294922,0,1.021484,-0.5229492,-0.8300781,-3.189453
143,-2.8125,0.9375,0,-0.02294922,-0.01123047,1.009766,-0.5229492,-0.8300781,-3.189453
147,-3.125,0.4375,0.125,-0.01904297,-0.01123047,1.021484,-0.5229492,-0.8300781,-3.189453
148,-3,0.5625,0.0625,-0.01513672,-0.007324219,1.005859,-0.5229492,-0.8300781,-3.189453
152,-2.875,0.8125,0.125,-0.02294922,0.003417969,1.005859,-0.5185547,-0.8276367,-3.179199
153,-2.75,0.8125,0.0625,-0.02294922,0.01513672,1.025391,-0.5185547,-0.8276367,-3.179199
157,-3,0.8125,0.0625,-0.02294922,0,1.029297,-0.5185547,-0.8276367,-3.179199
158,-2.8125,0.6875,0.0625,-0.02294922,-0.01123047,1.044922,-0.5229492,-0.8251953,-3.181641
162,-2.875,0.625,0,-0.007324219,0,1.025391,-0.5229492,-0.8251953,-3.181641
163,-2.9375,0.625,0.1875,-0.02685547,0.007324219,1.029297,-0.5229492,-0.8251953,-3.181641
167,-3,0.8125,0,-0.01513672,0.01123047,1.017578,-0.5205078,-0.815918,-3.184082
168,-3.0625,0.8125,0.0625,-0.02294922,-0.01513672,1.021484,-0.5205078,-0.815918,-3.184082
172,-2.625,0.6875,0.1875,0,-0.01513672,1.013672,-0.5205078,-0.815918,-3.184082
173,-3.0625,0.75,0.0625,-0.01123047,0.007324219,1.013672,-0.5205078,-0.815918,-3.184082
177,-3,0.6875,0.0625,-0.01123047,0.003417969,1.025391,-0.527832,-0.8300781,-3.181641
178,-2.9375,0.5,0.375,-0.02685547,-0.007324219,1.013672,-0.527832,-0.8300781,-3.181641
182,-2.75,0.6875,0.125,-0.01123047,0.007324219,1.017578,-0.527832,-0.8300781,-3.181641
183,-2.875,0.875,0.3125,-0.01904297,0,0.9985352,-0.527832,-0.8300781,-3.17627
187,-2.9375,0.6875,0,-0.02685547,0.007324219,1.005859,-0.527832,-0.8300781,-3.17627
188,-2.75,0.6875,0.125,-0.01513672,-0.003417969,1.029297,-0.527832,-0.8300781,-3.17627
192,-2.9375,0.75,0.1875,-0.02685547,0.007324219,1.025391,-0.5229492,-0.8232422,-3.179199
193,-2.875,0.8125,0.0625,-0.01513672,-0.003417969,1.021484,-0.5229492,-0.8232422,-3.179199
197,-3.0625,0.5625,0,-0.007324219,0,0.9946289,-0.5229492,-0.8232422,-3.179199
198,-2.9375,0.625,0.1875,-0.02294922,0.01123047,1.009766,-0.5229492,-0.8232422,-3.179199
202,-2.875,0.8125,0.0625,-0.02685547,0,1.009766,-0.5205078,-0.8183594,-3.17627
203,-2.9375,0.6875,0.1875,-0.03076172,-0.01123047,1.033203,-0.5205078,-0.8183594,-3.17627
207,-3.0625,0.6875,0.1875,-0.03076172,-0.007324219,0.9985352,-0.5205078,-0.8183594,-3.17627
208,-2.875,0.75,0.25,-0.02685547,0,1.009766,-0.5205078,-0.8325195,-3.17627
212,-2.8125,0.9375,0,-0.01904297,0,1.013672,-0.5205078,-0.8325195,-3.17627
213,-3,0.75,0.25,-0.03466797,-0.02685547,1.021484,-0.5205078,-0.8325195,-3.17627
217,-2.625,0.6875,0.3125,0,-0.007324219,1.025391,-0.5205078,-0.8232422,-3.189453
218,-2.875,0.75,0.125,-0.01513672,0,1.009766,-0.5205078,-0.8232422,-3.189453
222,-3,0.75,0.125,-0.03857422,0,1.017578,-0.5205078,-0.8232422,-3.189453
223,-3,0.4375,0.1875,-0.01904297,-0.007324219,1.005859,-0.5205078,-0.8232422,-3.189453
227,-2.875,0.875,0,-0.01513672,-0.02294922,1.033203,-0.5185547,-0.8325195,-3.181641
228,-2.9375,0.625,0.125,-0.01123047,0,1.033203,-0.5185547,-0.8325195,-3.181641
232,-2.9375,0.6875,0.125,-0.02294922,0,1.021484,-0.5185547,-0.8325195,-3.181641
233,-3.125,0.9375,0.25,-0.01513672,-0.01904297,1.029297,-0.5253906,-0.8325195,-3.17627
237,-2.6875,0.9375,0.1875,-0.01513672,0,1.021484,-0.5253906,-0.8325195,-3.17627
238,-2.9375,0.625,0,-0.02685547,-0.01904297,1.013672,-0.5253906,-0.8325195,-3.17627
242,-3.0625,0.875,0.125,-0.02685547,0.007324219,1.044922,-0.5205078,-0.8251953,-3.17627
243,-2.625,0.5625,0.1875,-0.01513672,-0.007324219,1.029297,-0.5205078,-0.8251953,-3.17627
247,-2.875,0.9375,0.25,-0.01513672,-0.01513672,1.017578,-0.5205078,-0.8251953,-3.17627
248,-2.9375,0.9375,0.125,-0.02685547,-0.01904297,1.013672,-0.5205078,-0.8251953,-3.17627
252,-2.9375,0.75,0.125,-0.003417969,-0.01513672,1.037109,-0.5205078,-0.8300781,-3.187012
253,-2.625,0.875,0.3125,-0.01123047,-0.007324219,1.029297,-0.5205078,-0.8300781,-3.187012
257,-2.75,1.125,0.25,-0.03857422,-0.003417969,1.029297,-0.5205078,-0.8300781,-3.187012
258,-3.0625,0.375,0.0625,-0.01513672,0,1.029297,-0.527832,-0.8232422,-3.184082
262,-2.9375,0.75,0,-0.01123047,0,1.025391,-0.527832,-0.8232422,-3.184082
263,-2.875,0.6875,0.0625,-0.03076172,0.003417969,1.017578,-0.527832,-0.8232422,-3.184082
267,-2.75,0.9375,0,-0.003417969,-0.007324219,1.021484,-0.5253906,-0.8208008,-3.184082
268,-2.9375,0.875,0.0625,-0.01513672,-0.003417969,1.025391,-0.5253906,-0.8208008,-3.184082
272,-3.0625,0.875,0.125,-0.01904297,-0.003417969,1.025391,-0.5253906,-0.8208008,-3.184082
274,-2.625,1.0625,0.25,-0.01123047,-0.007324219,1.001953,-0.5253906,-0.8208008,-3.184082
278,-2.9375,0.875,0.25,-0.02294922,0.01123047,1.025391,-0.5185547,-0.8300781,-3.191895
279,-3,0.8125,0.1875,-0.01904297,-0.01123047,1.009766,-0.5185547,-0.8300781,-3.191895
283,-2.875,0.75,0.25,0,0.007324219,1.009766,-0.5185547,-0.8300781,-3.191895
284,-3,0.9375,0.25,-0.03076172,-0.003417969,1.009766,-0.5136719,-0.8276367,-3.179199
288,-2.875,0.75,0.125,-0.01123047,0.003417969,1.033203,-0.5136719,-0.8276367,-3.179199
289,-2.75,0.9375,0.25,-0.02685547,0.01513672,1.021484,-0.5136719,-0.8276367,-3.179199
293,-2.8125,0.6875,0,-0.01513672,0.003417969,1.037109,-0.5297852,-0.8300781,-3.179199
294,-2.875,0.6875,0,-0.05029297,-0.003417969,1.017578,-0.5297852,-0.8300781,-3.179199
298,-2.8125,0.75,0.125,-0.007324219,-0.01123047,1.025391,-0.5297852,-0.8300781,-3.179199
299,-2.875,0.8125,0,-0.02294922,0,1.029297,-0.5297852,-0.8300781,-3.179199
303,-2.9375,0.8125,0.1875,-0.01123047,-0.003417969,1.029297,-0.5297852,-0.8300781,-3.17627
304,-2.9375,0.75,0.25,-0.01513672,-0.003417969,1.017578,-0.5297852,-0.8300781,-3.17627
308,-3.125,0.5625,0.0625,-0.01904297,-0.01513672,1.025391,-0.5297852,-0.8300781,-3.17627
309,-2.875,0.875,0.3125,-0.02685547,0,1.041016,-0.527832,-0.8300781,-3.184082
313,-2.75,0.8125,0.0625,-0.007324219,-0.02294922,1.021484,-0.527832,-0.8300781,-3.184082
314,-2.6875,1,0.0625,-0.01513672,-0.01513672,1.001953,-0.527832,-0.8300781,-3.184082
318,-3,0.8125,0,-0.01123047,-0.003417969,1.048828,-0.5112305,-0.8232422,-3.184082
319,-3,0.75,0.0625,-0.02685547,0.007324219,1.021484,-0.5112305,-0.8232422,-3.184082
323,-2.8125,1.0625,0.0625,-0.01123047,-0.01513672,1.033203,-0.5112305,-0.8232422,-3.184082
324,-2.875,0.6875,0.1875,-0.01513672,-0.01513672,1.001953,-0.5112305,-0.8232422,-3.184082
328,-2.9375,0.8125,0.125,-0.007324219,0.007324219,1.017578,-0.5205078,-0.8369141,-3.179199
329,-2.75,0.6875,0.125,-0.02294922,-0.003417969,1.025391,-0.5205078,-0.8369141,-3.179199
333,-3.125,0.9375,0.125,-0.01123047,-0.007324219,1.021484,-0.5205078,-0.8369141,-3.179199
334,-2.9375,0.8125,0.125,-0.01513672,-0.007324219,1.005859,-0.5161133,-0.8393555,-3.184082
338,-2.8125,0.8125,0,-0.007324219,0.007324219,1.029297,-0.5161133,-0.8393555,-3.184082
339,-2.875,0.875,0.0625,0,0,1.025391,-0.5161133,-0.8393555,-3.184082
343,-3,0.75,0,-0.02294922,-0.01513672,1.021484,-0.5229492,-0.8232422,-3.179199
344,-2.9375,0.9375,0.3125,-0.01123047,-0.007324219,1.013672,-0.5229492,-0.8232422,-3.179199
348,-2.875,0.875,0.25,-0.02294922,0.007324219,1.021484,-0.5229492,-0.8232422,-3.179199
349,-2.9375,0.6875,0.25,-0.02685547,-0.003417969,0.9985352,-0.5229492,-0.8232422,-3.179199
353,-2.9375,0.8125,0.125,-0.01904297,-0.007324219,1.029297,-0.5161133,-0.8300781,-3.179199
354,-3,0.8125,0.1875,-0.02294922,0.003417969,1.025391,-0.5161133,-0.8300781,-3.179199
358,-3,0.75,0.25,-0.01513672,-0.01123047,1.021484,-0.5161133,-0.8300781,-3.179199
359,-2.9375,0.8125,0.3125,-0.03076172,-0.01123047,1.021484,-0.5205078,-0.8232422,-3.181641
363,-2.75,0.8125,0.375,-0.01513672,0,1.025391,-0.5205078,-0.8232422,-3.181641
364,-2.875,0.875,0.0625,-0.01513672,-0.003417969,1.013672,-0.5205078,-0.8232422,-3.181641
368,-2.9375,0.75,0.25,-0.007324219,0.003417969,1.005859,-0.5229492,-0.8208008,-3.17627
369,-2.75,0.8125,0.125,-0.02685547,-0.01513672,1.025391,-0.5229492,-0.8208008,-3.17627
373,-2.75,0.75,0.0625,-0.02294922,0.01513672,1.033203,-0.5229492,-0.8208008,-3.17627
374,-3,0.9375,0.1875,-0.01513672,0,1.009766,-0.5229492,-0.8208008,-3.17627
378,-2.875,0.8125,0.1875,-0.01123047,-0.003417969,1.025391,-0.5229492,-0.8300781,-3.179199
379,-2.75,0.875,0.1875,-0.01123047,0,1.009766,-0.5229492,-0.8300781,-3.179199
383,-2.8125,0.8125,0.1875,-0.03466797,-0.01123047,1.021484,-0.5229492,-0.8300781,-3.179199
384,-3,0.75,0.25,-0.03076172,0.003417969,1.025391,-0.5185547,-0.8183594,-3.189453
388,-2.875,0.875,0.0625,-0.007324219,-0.003417969,1.013672,-0.5185547,-0.8183594,-3.189453
389,-2.875,0.8125,0.1875,-0.007324219,-0.01904297,1.025391,-0.5185547,-0.8183594,-3.189453
393,-2.9375,1.125,0.25,-0.02685547,-0.01123047,1.009766,-0.5297852,-0.8369141,-3.184082
394,-3,0.9375,0,-0.03076172,-0.003417969,1.037109,-0.5297852,-0.8369141,-3.184082
398,-3.0625,0.75,0,-0.02685547,-0.007324219,1.013672,-0.5297852,-0.8369141,-3.184082
399,-2.75,0.6875,0,-0.02685547,0.007324219,1.017578,-0.5297852,-0.8369141,-3.184082
403,-3,0.6875,0.0625,-0.02685547,-0.007324219,1.013672,-0.5185547,-0.8325195,-3.187012
404,-2.9375,0.6875,0.125,-0.01123047,-0.01123047,1.013672,-0.5185547,-0.8325195,-3.187012
408,-2.875,0.75,0.1875,-0.03466797,-0.003417969,1.021484,-0.5185547,-0.8325195,-3.187012
409,-2.875,0.875,0.1875,-0.01123047,-0.01123047,1.021484,-0.5205078,-0.8276367,-3.179199
413,-3,0.6875,0.3125,-0.02685547,0,1.005859,-0.5205078,-0.8276367,-3.179199
414,-2.875,1.0625,0.125,-0.01513672,-0.007324219,1.005859,-0.5205078,-0.8276367,-3.179199
418,-2.875,0.8125,0.1875,-0.02685547,-0.003417969,1.025391,-0.5161133,-0.8251953,-3.173828
419,-3,0.625,0.25,-0.01513672,0,1.017578,-0.5161133,-0.8251953,-3.173828
423,-2.9375,0.5625,0.25,0,-0.01513672,1.033203,-0.5161133,-0.8251953,-3.173828
424,-2.9375,0.6875,0.0625,-0.02294922,-0.003417969,1.017578,-0.5161133,-0.8251953,-3.173828
428,-3,0.75,0.25,-0.01513672,0.003417969,0.9985352,-0.5161133,-0.8300781,-3.191895
429,-2.75,0.8125,0.25,-0.007324219,-0.007324219,1.017578,-0.5161133,-0.8300781,-3.191895
433,-3.125,0.625,0.125,-0.03466797,-0.01123047,1.005859,-0.5161133,-0.8300781,-3.191895
435,-2.9375,1.0625,0.3125,-0.02685547,0.007324219,1.029297,-0.5229492,-0.8251953,-3.17627
439,-2.875,0.9375,0,-0.01123047,0.003417969,1.044922,-0.5229492,-0.8251953,-3.17627
440,-3.0625,0.9375,0,-0.02685547,0.003417969,1.029297,-0.5229492,-0.8251953,-3.17627
444,-2.8125,0.6875,0.0625,-0.01904297,0,1.009766,-0.5185547,-0.8300781,-3.187012
445,-2.8125,0.6875,0.0625,-0.02685547,-0.01904297,1.017578,-0.5185547,-0.8300781,-3.187012
449,-2.8125,0.9375,0.125,-0.007324219,-0.007324219,1.025391,-0.5185547,-0.8300781,-3.187012
450,-2.9375,0.6875,0,-0.01513672,0.003417969,1.021484,-0.5185547,-0.8300781,-3.187012
454,-2.5625,0.625,0.0625,0,0,1.005859,-0.5253906,-0.8300781,-3.189453
455,-3.125,0.8125,0.1875,-0.02294922,0,1.037109,-0.5253906,-0.8300781,-3.189453
459,-2.875,0.875,0.125,-0.003417969,-0.01123047,1.001953,-0.5253906,-0.8300781,-3.189453
460,-3,0.9375,0.5,-0.02685547,0,1.013672,-0.534668,-0.8232422,-3.191895
464,-2.8125,0.6875,0.125,-0.01904297,-0.02294922,1.037109,-0.534668,-0.8232422,-3.191895
465,-2.9375,0.75,0,-0.007324219,0.007324219,1.037109,-0.534668,-0.8232422,-3.191895
469,-2.8125,0.6875,0.3125,-0.01513672,-0.007324219,1.021484,-0.5161133,-0.8251953,-3.17627
470,-2.8125,0.875,0.125,-0.02685547,0.007324219,1.013672,-0.5161133,-0.8251953,-3.17627
474,-3,0.6875,0,-0.02685547,0.003417969,1.001953,-0.5161133,-0.8251953,-3.17627
475,-2.875,0.625,0.3125,-0.02685547,0.003417969,1.009766,-0.5161133,-0.8251953,-3.17627
479,-2.8125,0.8125,0.125,-0.01513672,-0.007324219,1.005859,-0.5205078,-0.8300781,-3.17627
480,-2.6875,0.75,0.125,-0.01513672,0,1.025391,-0.5205078,-0.8300781,-3.17627
484,-3,0.4375,0.125,-0.007324219,-0.01123047,1.013672,-0.5205078,-0.8300781,-3.17627
485,-2.8125,0.75,0,-0.03076172,-0.01123047,1.021484,-0.5229492,-0.8251953,-3.179199
489,-2.8125,0.75,0.25,-0.02685547,-0.01513672,1.025391,-0.5229492,-0.8251953,-3.179199
490,-2.9375,0.875,0.0625,-0.02294922,0.01123047,1.033203,-0.5229492,-0.8251953,-3.179199
494,-2.75,0.75,0.125,-0.007324219,0.003417969,1.029297,-0.5185547,-0.8300781,-3.181641
495,-2.6875,0.875,0,-0.02294922,-0.01123047,1.009766,-0.5185547,-0.8300781,-3.181641
499,-2.875,0.75,0.125,-0.01123047,0.007324219,1.021484,-0.5185547,-0.8300781,-3.181641
500,-2.625,0.8125,0.1875,-0.01513672,0.007324219,1.005859,-0.5185547,-0.8300781,-3.181641
504,-2.9375,0.625,0,-0.01904297,-0.003417969,1.009766,-0.5185547,-0.8183594,-3.179199
505,-2.6875,1,0.125,-0.02294922,0,1.025391,-0.5185547,-0.8183594,-3.179199
509,-2.8125,0.5,0.1875,-0.03466797,0.007324219,1.029297,-0.5185547,-0.8183594,-3.179199
510,-3.0625,0.6875,0,-0.02294922,-0.003417969,1.021484,-0.5229492,-0.8232422,-3.168457
514,-2.6875,0.9375,0.1875,-0.01513672,-0.02294922,1.025391,-0.5229492,-0.8232422,-3.168457
515,-2.8125,0.875,0.0625,-0.01904297,-0.003417969,1.017578,-0.5229492,-0.8232422,-3.168457
519,-2.8125,0.6875,0,-0.01513672,-0.01513672,1.017578,-0.5253906,-0.8232422,-3.194336
520,-2.875,0.9375,0,-0.01513672,0.01123047,1.025391,-0.5253906,-0.8232422,-3.194336
524,-2.5,1.0625,0.125,-0.01123047,-0.01123047,1.017578,-0.5253906,-0.8232422,-3.194336
525,-2.9375,0.8125,0.125,-0.01904297,0.003417969,1.021484,-0.5253906,-0.8232422,-3.194336
529,-2.9375,0.75,0,-0.02294922,0.01123047,1.029297,-0.5185547,-0.8232422,-3.173828
530,-2.8125,0.875,0.0625,0,0.01513672,1.029297,-0.5185547,-0.8232422,-3.173828
534,-2.625,0.8125,0.1875,-0.04248047,0,1.044922,-0.5185547,-0.8232422,-3.173828
535,-2.9375,0.875,0,-0.01123047,-0.01513672,1.013672,-0.5205078,-0.8251953,-3.187012
539,-2.875,0.5625,0.3125,-0.007324219,-0.007324219,1.009766,-0.5205078,-0.8251953,-3.187012
540,-3.0625,0.8125,0.3125,-0.003417969,0.003417969,1.013672,-0.5205078,-0.8251953,-3.187012
544,-2.75,0.8125,0,-0.007324219,-0.003417969,1.021484,-0.5253906,-0.8251953,-3.187012
545,-3.125,0.625,0.25,-0.01513672,0.003417969,1.037109,-0.5253906,-0.8251953,-3.187012
549,-3.0625,0.8125,0.0625,-0.04248047,-0.01123047,1.025391,-0.5253906,-0.8251953,-3.187012
550,-2.6875,1,0.25,-0.01513672,-0.003417969,1.021484,-0.5253906,-0.8251953,-3.187012
554,-2.75,0.75,0.0625,-0.02294922,-0.003417969,1.021484,-0.5205078,-0.8183594,-3.187012
555,-3.125,0.75,0.1875,-0.03466797,0.007324219,1.021484,-0.5205078,-0.8183594,-3.187012
559,-2.875,0.8125,0.1875,-0.007324219,0,1.013672,-0.5205078,-0.8183594,-3.187012
560,-2.75,0.8125,0.1875,-0.01513672,0.003417969,1.017578,-0.5229492,-0.8369141,-3.191895
564,-2.875,0.625,0.1875,-0.03076172,-0.003417969,1.017578,-0.5229492,-0.8369141,-3.191895
565,-3.1875,0.6875,0,-0.01123047,-0.007324219,1.021484,-0.5229492,-0.8369141,-3.191895
569,-2.875,0.6875,0.1875,-0.01123047,-0.01123047,1.025391,-0.5161133,-0.8344727,-3.179199
570,-2.875,0.8125,0.25,-0.03466797,-0.007324219,1.025391,-0.5161133,-0.8344727,-3.179199
574,-2.9375,0.9375,0,-0.007324219,-0.007324219,0.9985352,-0.5161133,-0.8344727,-3.179199
575,-2.875,0.625,0,-0.01513672,0,1.009766,-0.5161133,-0.8344727,-3.179199
579,-2.6875,0.75,0,-0.02685547,-0.01904297,1.029297,-0.5253906,-0.8344727,-3.189453
580,-2.8125,0.5625,0.0625,-0.01513672,-0.003417969,1.033203,-0.5253906,-0.8344727,-3.189453
584,-2.9375,0.875,0,-0.02685547,0,1.044922,-0.5253906,-0.8344727,-3.189453
585,-3,1,0.0625,-0.01904297,-0.003417969,0.9985352,-0.5297852,-0.8232422,-3.168457
589,-2.9375,0.8125,0,-0.01513672,-0.007324219,1.017578,-0.5297852,-0.8232422,-3.168457
590,-2.9375,0.9375,0.1875,-0.01513672,-0.007324219,1.005859,-0.5297852,-0.8232422,-3.168457
594,-3,0.8125,0,-0.03076172,0.003417969,1.029297,-0.5185547,-0.8344727,-3.189453
596,-2.875,0.75,0.1875,-0.02294922,0.01123047,1.009766,-0.5185547,-0.8344727,-3.189453
600,-2.875,0.9375,0.1875,-0.01123047,-0.007324219,1.048828,-0.5185547,-0.8344727,-3.189453
601,-2.875,0.8125,0.1875,-0.03076172,0.01123047,1.033203,-0.5185547,-0.8344727,-3.189453
605,-3.1875,0.9375,0.125,-0.007324219,-0.007324219,1.017578,-0.5205078,-0.8300781,-3.179199
606,-3.125,0.9375,0,-0.02294922,0,1.017578,-0.5205078,-0.8300781,-3.179199
610,-2.875,0.75,0.1875,-0.02685547,-0.003417969,1.033203,-0.5205078,-0.8300781,-3.179199
611,-2.8125,1.0625,0.3125,-0.01904297,0.007324219,1.013672,-0.5185547,-0.8276367,-3.17627
615,-3,0.875,0,-0.01123047,-0.01123047,1.025391,-0.5185547,-0.8276367,-3.17627
616,-3.125,0.875,0.0625,-0.007324219,0,1.033203,-0.5185547,-0.8276367,-3.17627
620,-2.9375,0.875,0.1875,-0.007324219,0,1.017578,-0.5161133,-0.8300781,-3.17627
621,-3,1.0625,0.125,-0.01513672,0.01513672,1.009766,-0.5161133,-0.8300781,-3.17627
625,-2.9375,0.625,0,-0.02294922,0.007324219,1.033203,-0.5161133,-0.8300781,-3.17627
626,-2.875,0.9375,0,0.003417969,0,1.009766,-0.5161133,-0.8300781,-3.17627
630,-3.125,0.9375,0.125,-0.01513672,-0.01513672,1.009766,-0.5205078,-0.8300781,-3.179199
631,-3,1.125,0.125,-0.01123047,-0.01513672,1.021484,-0.5205078,-0.8300781,-3.179199
635,-3.1875,1.125,0,-0.01123047,0.003417969,1.021484,-0.5205078,-0.8300781,-3.179199
636,-3,1,0,-0.02685547,0,1.013672,-0.5185547,-0.8251953,-3.187012
640,-3.0625,0.9375,0,-0.01513672,-0.003417969,1.021484,-0.5185547,-0.8251953,-3.187012
641,-3.0625,0.8125,0.1875,-0.01123047,0.007324219,1.005859,-0.5185547,-0.8251953,-3.187012
645,-3,0.8125,0,-0.01123047,-0.003417969,1.044922,-0.5297852,-0.8183594,-3.184082
646,-3,0.75,0.1875,-0.01513672,-0.01123047,1.037109,-0.5297852,-0.8183594,-3.184082
650,-2.9375,0.9375,0.1875,-0.02294922,-0.007324219,1.029297,-0.5297852,-0.8183594,-3.184082
651,-3.0625,0.875,0.125,-0.03076172,-0.007324219,1.044922,-0.5297852,-0.8183594,-3.184082
655,-3.0625,0.9375,0,-0.01904297,-0.007324219,1.041016,-0.5253906,-0.8300781,-3.184082
656,-3,1,0.0625,-0.01904297,-0.01513672,1.017578,-0.5253906,-0.8300781,-3.184082
660,-2.8125,1,0.1875,-0.01513672,0,1.017578,-0.5253906,-0.8300781,-3.184082
661,-3,0.875,0.125,-0.02685547,0,1.017578,-0.5205078,-0.8300781,-3.17627
665,-3,0.8125,0,-0.007324219,-0.007324219,1.021484,-0.5205078,-0.8300781,-3.17627
666,-2.875,0.8125,0.3125,-0.007324219,-0.01513672,1.017578,-0.5205078,-0.8300781,-3.17627
670,-3.0625,0.9375,0,-0.007324219,-0.003417969,1.009766,-0.5297852,-0.8276367,-3.187012
671,-3.25,0.625,0.0625,-0.01904297,0.003417969,1.044922,-0.5297852,-0.8276367,-3.187012
675,-2.9375,0.6875,0.125,-0.01904297,-0.01123047,1.017578,-0.5297852,-0.8276367,-3.187012
676,-2.75,0.75,0.125,-0.02294922,-0.007324219,1.013672,-0.5297852,-0.8276367,-3.187012
680,-2.9375,1,0.1875,-0.01513672,0,1.029297,-0.5161133,-0.8232422,-3.184082
681,-3.0625,0.5,0.0625,-0.007324219,-0.01123047,1.021484,-0.5161133,-0.8232422,-3.184082
685,-2.5625,0.875,0.3125,-0.02685547,0,1.029297,-0.5161133,-0.8232422,-3.184082
686,-2.875,0.9375,0.0625,-0.01123047,0.007324219,1.009766,-0.5068359,-0.8325195,-3.189453
690,-2.9375,0.75,0.125,-0.01513672,-0.01123047,1.013672,-0.5068359,-0.8325195,-3.189453
691,-2.9375,0.8125,0.0625,-0.02294922,-0.01123047,1.017578,-0.5068359,-0.8325195,-3.189453
695,-2.75,1,0.1875,-0.01513672,-0.01513672,0.9985352,-0.5253906,-0.8232422,-3.184082
696,-2.8125,0.75,0.1875,-0.02294922,-0.01123047,1.037109,-0.5253906,-0.8232422,-3.184082
700,-2.875,0.75,0,-0.007324219,-0.01123047,1.021484,-0.5253906,-0.8232422,-3.184082
701,-2.875,0.8125,0.1875,-0.01513672,0,1.009766,-0.5253906,-0.8232422,-3.184082
705,-2.8125,0.8125,0.1875,-0.02685547,-0.007324219,1.009766,-0.5205078,-0.8276367,-3.17627
706,-2.875,0.5,0.0625,0,0.003417969,1.017578,-0.5205078,-0.8276367,-3.17627
710,-3.125,0.625,0.0625,-0.01513672,0,1.013672,-0.5205078,-0.8276367,-3.17627
711,-2.875,0.75,0.1875,0,0.007324219,1.009766,-0.5185547,-0.8276367,-3.17627
715,-2.8125,1,0.1875,-0.02685547,0.003417969,1.013672,-0.5185547,-0.8276367,-3.17627
716,-2.9375,1,0.0625,0,0,1.025391,-0.5185547,-0.8276367,-3.17627
720,-3.0625,0.5625,0,-0.007324219,-0.01513672,1.021484,-0.5229492,-0.8251953,-3.17627
721,-2.625,0.75,0.375,-0.02294922,-0.007324219,1.021484,-0.5229492,-0.8251953,-3.17627
725,-2.625,0.9375,0.125,-0.01904297,0.007324219,1.021484,-0.5229492,-0.8251953,-3.17627
726,-2.9375,0.625,0.125,-0.02685547,0,1.017578,-0.5229492,-0.8251953,-3.17627
730,-3.125,0.6875,0,-0.02294922,0,1.029297,-0.5297852,-0.8325195,-3.173828
731,-2.6875,0.875,0,-0.007324219,0,1.029297,-0.5297852,-0.8325195,-3.173828
735,-2.9375,0.75,0.3125,-0.01123047,-0.01513672,1.025391,-0.5297852,-0.8325195,-3.173828
736,-2.75,0.875,0.0625,-0.02294922,-0.003417969,1.044922,-0.5205078,-0.8325195,-3.173828
740,-2.875,0.6875,0.1875,-0.007324219,-0.01123047,1.033203,-0.5205078,-0.8325195,-3.173828
741,-2.75,0.875,0.25,-0.01513672,-0.003417969,1.009766,-0.5205078,-0.8325195,-3.173828
745,-2.75,0.875,0.125,-0.02685547,-0.007324219,1.044922,-0.5229492,-0.8276367,-3.181641
746,-3,0.5,0,-0.02294922,-0.01513672,1.013672,-0.5229492,-0.8276367,-3.181641
750,-2.8125,0.875,0.0625,-0.01123047,0.007324219,1.017578,-0.5229492,-0.8276367,-3.181641
751,-2.75,0.9375,0.1875,-0.01123047,-0.003417969,1.017578,-0.5229492,-0.8276367,-3.181641
755,-3,1.0625,0.25,-0.01513672,0.01123047,1.017578,-0.5185547,-0.8276367,-3.187012
758,-3,0.8125,0.1875,-0.01904297,0,1.009766,-0.5185547,-0.8276367,-3.187012
762,-3,0.8125,0.125,-0.02685547,-0.003417969,1.021484,-0.5185547,-0.8276367,-3.187012
763,-2.75,0.75,0.1875,-0.01513672,0.007324219,1.048828,-0.5229492,-0.8251953,-3.187012
767,-2.875,0.75,0,-0.01904297,0,1.021484,-0.5229492,-0.8251953,-3.187012
768,-3.1875,0.625,0.0625,-0.01513672,0.01123047,1.021484,-0.5229492,-0.8251953,-3.187012
772,-2.75,0.75,0,-0.01123047,0.003417969,1.021484,-0.5185547,-0.8325195,-3.17627
773,-2.875,0.8125,0,-0.03466797,-0.003417969,1.025391,-0.5185547,-0.8325195,-3.17627
777,-2.875,0.6875,0,-0.03857422,-0.02294922,1.021484,-0.5185547,-0.8325195,-3.17627
778,-2.875,0.6875,0,-0.01513672,0,1.021484,-0.5185547,-0.8325195,-3.17627
782,-2.75,0.9375,0.125,0,0.003417969,1.009766,-0.5229492,-0.8325195,-3.179199
783,-3.0625,0.75,0.0625,-0.01513672,0,1.021484,-0.5229492,-0.8325195,-3.179199
787,-2.875,0.75,0.125,-0.01513672,-0.007324219,1.017578,-0.5229492,-0.8325195,-3.179199
788,-2.6875,0.625,0.1875,-0.01513672,0.01123047,1.033203,-0.5253906,-0.8232422,-3.181641
792,-2.8125,0.75,0,-0.007324219,0.003417969,1.025391,-0.5253906,-0.8232422,-3.181641
793,-2.875,0.75,0.25,-0.01513672,0.007324219,1.017578,-0.5253906,-0.8232422,-3.181641
797,-2.875,0.75,0.1875,-0.01123047,0.01904297,1.021484,-0.5185547,-0.8325195,-3.187012
798,-2.9375,0.8125,0,-0.007324219,0,1.013672,-0.5185547,-0.8325195,-3.187012
802,-2.8125,0.75,0.25,-0.01513672,-0.02294922,1.044922,-0.5185547,-0.8325195,-3.187012
803,-2.75,0.8125,0,-0.03076172,-0.003417969,1.021484,-0.5185547,-0.8325195,-3.187012
807,-2.875,1,0.0625,-0.02294922,-0.01123047,1.021484,-0.5161133,-0.8251953,-3.189453
808,-2.5625,0.9375,0.1875,-0.02294922,-0.007324219,1.009766,-0.5161133,-0.8251953,-3.189453
812,-3,0.75,0,-0.02294922,-0.01513672,1.021484,-0.5161133,-0.8251953,-3.189453
813,-3.0625,1,0.3125,-0.01513672,-0.01123047,1.009766,-0.5297852,-0.8325195,-3.17627
817,-2.875,0.5625,0.0625,-0.01123047,-0.01513672,1.021484,-0.5297852,-0.8325195,-3.17627
818,-2.6875,0.6875,0.1875,-0.02294922,-0.01513672,0.9985352,-0.5297852,-0.8325195,-3.17627
822,-3.0625,1.0625,0,-0.01904297,0.007324219,1.013672,-0.5229492,-0.8344727,-3.184082
823,-2.8125,0.9375,0.25,-0.01513672,-0.01513672,1.029297,-0.5229492,-0.8344727,-3.184082
827,-2.8125,0.8125,0.1875,0.003417969,0,1.021484,-0.5229492,-0.8344727,-3.184082
828,-2.9375,0.6875,0,-0.02685547,-0.01123047,1.017578,-0.5229492,-0.8344727,-3.184082
832,-3,0.75,0.3125,-0.01123047,-0.003417969,1.009766,-0.527832,-0.8183594,-3.173828
833,-2.9375,0.9375,0.125,-0.01123047,-0.01123047,1.025391,-0.527832,-0.8183594,-3.173828
837,-3.125,0.6875,0.1875,-0.01123047,0.003417969,1.025391,-0.527832,-0.8183594,-3.173828
838,-2.9375,1,0.0625,-0.007324219,-0.007324219,1.025391,-0.5161133,-0.8300781,-3.168457
842,-2.75,0.875,0.0625,-0.04248047,0.01123047,1.021484,-0.5161133,-0.8300781,-3.168457
843,-2.8125,0.625,0.0625,-0.007324219,-0.003417969,1.021484,-0.5161133,-0.8300781,-3.168457
847,-2.75,0.6875,0.1875,-0.03466797,0.003417969,1.044922,-0.5322266,-0.8276367,-3.17627
848,-2.9375,0.875,0.125,-0.01513672,0,1.013672,-0.5322266,-0.8276367,-3.17627
852,-2.75,0.75,0.1875,-0.01904297,-0.02294922,1.021484,-0.5322266,-0.8276367,-3.17627
853,-2.9375,0.8125,0,-0.02685547,-0.003417969,1.001953,-0.5322266,-0.8276367,-3.17627
857,-2.875,0.8125,0.0625,-0.007324219,0.007324219,1.029297,-0.5297852,-0.8251953,-3.173828
858,-2.9375,0.8125,0.1875,-0.01123047,0.01123047,1.029297,-0.5297852,-0.8251953,-3.173828
862,-2.75,0.625,0,-0.01513672,-0.003417969,1.009766,-0.5297852,-0.8251953,-3.173828
863,-2.8125,0.6875,0.1875,-0.01513672,0,1.017578,-0.5229492,-0.8232422,-3.181641
867,-2.9375,0.8125,0.3125,-0.03076172,-0.02294922,1.029297,-0.5229492,-0.8232422,-3.181641
868,-2.75,0.75,0.125,-0.01904297,-0.003417969,1.021484,-0.5229492,-0.8232422,-3.181641
872,-2.8125,1,0.0625,-0.02685547,-0.007324219,1.029297,-0.5185547,-0.8232422,-3.179199
873,-3,0.5,0.0625,-0.01513672,0.007324219,1.025391,-0.5185547,-0.8232422,-3.179199
877,-2.8125,0.9375,0.0625,-0.02294922,-0.003417969,1.009766,-0.5185547,-0.8232422,-3.179199
878,-2.9375,0.6875,0.0625,-0.01904297,0,1.029297,-0.5185547,-0.8232422,-3.179199
882,-2.8125,0.75,0.125,-0.01904297,-0.007324219,1.021484,-0.5229492,-0.8276367,-3.171387
883,-2.75,0.75,0.125,-0.01513672,0,1.005859,-0.5229492,-0.8276367,-3.171387
887,-2.875,0.875,0.25,-0.01123047,0.003417969,1.033203,-0.5229492,-0.8276367,-3.171387
888,-2.875,0.625,0.375,-0.03466797,-0.01513672,1.001953,-0.5229492,-0.8183594,-3.17627
892,-2.9375,0.8125,0.125,-0.01513672,0.01123047,1.029297,-0.5229492,-0.8183594,-3.17627
893,-2.8125,0.6875,0.1875,-0.01123047,-0.01123047,1.017578,-0.5229492,-0.8183594,-3.17627
897,-2.875,0.75,0.1875,-0.03076172,-0.01123047,1.001953,-0.5205078,-0.8251953,-3.189453
898,-2.9375,0.9375,0,-0.01904297,-0.01513672,1.033203,-0.5205078,-0.8251953,-3.189453
902,-3.0625,0.6875,0.25,-0.02294922,0.007324219,1.044922,-0.5205078,-0.8251953,-3.189453
903,-2.875,0.875,0.125,-0.01904297,-0.007324219,1.005859,-0.5205078,-0.8251953,-3.189453
907,-2.9375,0.6875,0.125,-0.01513672,-0.02294922,1.025391,-0.5297852,-0.8344727,-3.173828
908,-2.9375,0.8125,0.0625,-0.01123047,-0.003417969,1.001953,-0.5297852,-0.8344727,-3.173828
912,-3,0.625,0.0625,-0.02685547,-0.01513672,1.005859,-0.5297852,-0.8344727,-3.173828
913,-2.6875,0.875,0.5,-0.02294922,-0.01904297,1.005859,-0.5161133,-0.8276367,-3.179199
917,-2.9375,0.875,0.0625,-0.03466797,0,1.037109,-0.5161133,-0.8276367,-3.179199
919,-3.0625,0.5,0.125,-0.03076172,-0.01123047,1.009766,-0.5161133,-0.8276367,-3.179199
923,-2.9375,0.8125,0,-0.007324219,-0.01904297,1.017578,-0.5185547,-0.8325195,-3.17627
924,-3,0.6875,0.0625,-0.01123047,0.003417969,1.009766,-0.5185547,-0.8325195,-3.17627
928,-2.875,0.75,0.125,-0.01123047,0.003417969,1.021484,-0.5185547,-0.8325195,-3.17627
929,-2.75,0.75,0.0625,-0.01123047,-0.01123047,1.009766,-0.5185547,-0.8325195,-3.17627
933,-3.0625,0.875,0.125,-0.01123047,0,1.029297,-0.5136719,-0.8300781,-3.171387
934,-2.875,0.6875,0.3125,-0.03076172,0.003417969,1.021484,-0.5136719,-0.8300781,-3.171387
938,-3,0.625,0.1875,-0.02294922,0.003417969,1.041016,-0.5136719,-0.8300781,-3.171387
939,-2.8125,0.6875,0,-0.01123047,-0.007324219,1.044922,-0.5136719,-0.8300781,-3.173828
943,-2.9375,0.6875,0.0625,-0.01904297,-0.01513672,1.005859,-0.5136719,-0.8300781,-3.173828
944,-2.8125,0.875,0,-0.02294922,-0.003417969,1.029297,-0.5136719,-0.8300781,-3.173828
948,-3.0625,0.625,0,-0.01123047,-0.01123047,1.025391,-0.5205078,-0.8325195,-3.187012
949,-2.8125,0.8125,0.0625,-0.04248047,0.01513672,1.017578,-0.5205078,-0.8325195,-3.187012
953,-2.75,0.8125,0.0625,-0.01123047,-0.03076172,1.021484,-0.5205078,-0.8325195,-3.187012
954,-2.6875,0.8125,0.125,0,0.007324219,1.013672,-0.5205078,-0.8325195,-3.187012
958,-2.8125,0.875,0.1875,-0.01513672,0,1.001953,-0.5136719,-0.8276367,-3.179199
959,-3.125,0.9375,0.1875,-0.01123047,0.01123047,1.029297,-0.5136719,-0.8276367,-3.179199
963,-2.6875,0.9375,0.25,-0.007324219,-0.007324219,1.025391,-0.5136719,-0.8276367,-3.179199
964,-2.9375,0.6875,0.0625,-0.03076172,-0.003417969,1.005859,-0.5185547,-0.8325195,-3.184082
968,-2.875,1.0625,0.0625,-0.03466797,-0.007324219,0.9946289,-0.5185547,-0.8325195,-3.184082
969,-2.8125,0.5625,0.25,-0.01123047,-0.01513672,1.033203,-0.5185547,-0.8325195,-3.184082
973,-2.9375,0.6875,0,-0.02685547,0,1.001953,-0.5136719,-0.8344727,-3.179199
974,-2.75,0.8125,0.0625,-0.02294922,0,1.029297,-0.5136719,-0.8344727,-3.179199
978,-3.0625,0.8125,0.0625,-0.01904297,0.003417969,1.033203,-0.5136719,-0.8344727,-3.179199
979,-2.5625,0.6875,0.1875,-0.01123047,0.007324219,1.025391,-0.5136719,-0.8344727,-3.179199
983,-2.8125,0.9375,0.0625,-0.003417969,0.007324219,1.021484,-0.5185547,-0.8276367,-3.168457
984,-3.0625,0.625,0,-0.01513672,0.01513672,1.001953,-0.5185547,-0.8276367,-3.168457
988,-2.6875,0.625,0.0625,-0.03076172,-0.01904297,1.021484,-0.5185547,-0.8276367,-3.168457
989,-2.875,0.8125,0.125,-0.003417969,-0.003417969,1.009766,-0.5253906,-0.8344727,-3.184082
993,-2.9375,0.625,0.0625,-0.01904297,-0.007324219,1.021484,-0.5253906,-0.8344727,-3.184082
994,-2.8125,0.9375,0,-0.01513672,0.003417969,1.017578,-0.5253906,-0.8344727,-3.184082
998,-2.875,0.8125,0.1875,-0.01513672,-0.003417969,1.033203,-0.5229492,-0.8232422,-3.184082
999,-2.8125,0.75,0.0625,-0.01513672,0,1.044922,-0.5229492,-0.8232422,-3.184082
1003,-2.9375,0.6875,0.0625,-0.003417969,0.003417969,1.025391,-0.5229492,-0.8232422,-3.184082
1004,-2.8125,0.875,0.125,-0.007324219,0.01123047,1.017578,-0.5229492,-0.8232422,-3.184082
1008,-2.8125,0.6875,0.1875,-0.01513672,0.003417969,1.021484,-0.5205078,-0.8251953,-3.184082
1009,-2.75,0.8125,0.25,-0.01513672,0.007324219,1.021484,-0.5205078,-0.8251953,-3.184082
1013,-3,0.6875,0.0625,-0.01123047,-0.01123047,1.017578,-0.5205078,-0.8251953,-3.184082
1014,-2.75,0.75,0.125,-0.01513672,0.01904297,0.9985352,-0.5229492,-0.8300781,-3.187012
1018,-2.9375,0.875,0.125,-0.01513672,-0.003417969,1.021484,-0.5229492,-0.8300781,-3.187012
1019,-3,0.75,0,-0.01513672,0,1.033203,-0.5229492,-0.8300781,-3.187012
1023,-3.125,0.6875,0,-0.003417969,0.01123047,1.017578,-0.5322266,-0.8276367,-3.184082
1024,-2.9375,1.125,0.25,-0.02294922,-0.007324219,1.048828,-0.5322266,-0.8276367,-3.184082
1028,-2.6875,0.75,0.0625,-0.01513672,-0.007324219,1.017578,-0.5322266,-0.8276367,-3.184082
1029,-3.1875,0.625,0.0625,-0.007324219,0.003417969,1.021484,-0.5322266,-0.8276367,-3.184082
1033,-3.0625,0.6875,0.25,-0.01123047,-0.003417969,1.044922,-0.5161133,-0.8344727,-3.17627
1034,-2.625,0.6875,0.125,-0.02294922,0.007324219,1.037109,-0.5161133,-0.8344727,-3.17627
1038,-2.875,0.9375,0.0625,-0.04248047,-0.003417969,1.025391,-0.5161133,-0.8344727,-3.17627
1039,-2.8125,0.9375,0,-0.01123047,-0.007324219,1.029297,-0.5205078,-0.8208008,-3.173828
1043,-2.9375,0.6875,0.375,-0.007324219,-0.01904297,1.009766,-0.5205078,-0.8208008,-3.173828
1044,-3,0.6875,0,-0.01904297,-0.01123047,1.044922,-0.5205078,-0.8208008,-3.173828
1048,-2.8125,0.8125,0.3125,-0.007324219,-0.003417969,1.009766,-0.5229492,-0.8325195,-3.173828
1049,-2.9375,0.75,0,-0.02294922,0.007324219,1.025391,-0.5229492,-0.8325195,-3.173828
1053,-2.9375,0.75,0.0625,0,0,1.009766,-0.5229492,-0.8325195,-3.173828
1054,-3.125,0.6875,0,0,-0.007324219,1.021484,-0.5229492,-0.8325195,-3.173828
1058,-2.8125,0.875,0.125,-0.01513672,-0.01123047,1.029297,-0.5185547,-0.8300781,-3.189453
1059,-2.75,0.9375,0.1875,-0.01513672,-0.003417969,1.033203,-0.5185547,-0.8300781,-3.189453
1063,-2.5625,0.875,0.25,-0.03466797,0.01123047,1.025391,-0.5185547,-0.8300781,-3.189453
1064,-3,0.8125,0,-0.01123047,-0.003417969,1.044922,-0.5297852,-0.8300781,-3.171387
1068,-2.875,0.625,0.3125,-0.01123047,-0.02294922,1.025391,-0.5297852,-0.8300781,-3.171387
1069,-2.8125,0.6875,0.1875,-0.01513672,-0.003417969,1.021484,-0.5297852,-0.8300781,-3.171387
1073,-2.8125,0.6875,0.25,-0.007324219,0.003417969,1.009766,-0.5205078,-0.8325195,-3.168457
1074,-2.875,0.75,0,0,-0.007324219,1.021484,-0.5205078,-0.8325195,-3.168457
1078,-2.9375,1.125,0.1875,-0.03466797,-0.01123047,1.017578,-0.5205078,-0.8325195,-3.168457
1080,-2.9375,0.8125,0,-0.03076172,-0.007324219,1.009766,-0.5205078,-0.8325195,-3.168457
1084,-3,0.6875,0,-0.02294922,0.01513672,1.005859,-0.5205078,-0.8300781,-3.179199
1085,-2.9375,0.6875,0,-0.03076172,-0.01123047,1.025391,-0.5205078,-0.8300781,-3.179199
1089,-2.875,0.625,0,0,0.01123047,1.033203,-0.5205078,-0.8300781,-3.179199
1090,-2.625,0.875,0.1875,-0.01513672,-0.02294922,1.013672,-0.5229492,-0.8300781,-3.181641
1094,-2.9375,1,0.125,-0.01904297,0,1.013672,-0.5229492,-0.8300781,-3.181641
1095,-3.0625,0.75,0.0625,-0.01513672,-0.003417969,1.013672,-0.5229492,-0.8300781,-3.181641
1099,-2.6875,0.9375,0,-0.01513672,-0.01513672,1.021484,-0.527832,-0.8276367,-3.184082
1100,-2.8125,0.6875,0.125,-0.02685547,0.007324219,1.044922,-0.527832,-0.8276367,-3.184082
1104,-3.0625,0.75,0,-0.01123047,-0.01513672,1.009766,-0.527832,-0.8276367,-3.184082
1105,-2.8125,0.75,0.125,-0.02685547,0,1.044922,-0.527832,-0.8276367,-3.184082
1109,-2.8125,0.75,0.0625,-0.01123047,-0.007324219,1.021484,-0.5205078,-0.8325195,-3.184082
1110,-3,0.9375,0.25,-0.01123047,0,1.025391,-0.5205078,-0.8325195,-3.184082
1114,-2.875,0.8125,0.0625,-0.007324219,0,1.009766,-0.5205078,-0.8325195,-3.184082
1115,-2.875,0.75,0.1875,-0.01904297,0.007324219,1.025391,-0.5185547,-0.8232422,-3.187012
1119,-2.875,0.625,0.0625,-0.01123047,-0.003417969,1.029297,-0.5185547,-0.8232422,-3.187012
1120,-2.8125,0.625,0.25,-0.01904297,0.007324219,1.009766,-0.5185547,-0.8232422,-3.187012
1124,-2.8125,0.75,0.1875,-0.01513672,0.003417969,1.029297,-0.5136719,-0.8325195,-3.17627
1125,-2.875,0.9375,0.0625,-0.01513672,-0.003417969,1.009766,-0.5136719,-0.8325195,-3.17627
1129,-2.8125,0.625,0.3125,-0.01123047,-0.007324219,1.029297,-0.5136719,-0.8325195,-3.17627
1130,-2.875,0.875,0.25,-0.02294922,0.007324219,1.025391,-0.5136719,-0.8325195,-3.17627
1134,-2.875,0.9375,0.25,-0.01513672,0,1.044922,-0.5205078,-0.8300781,-3.173828
1135,-3,0.75,0.0625,-0.01123047,0,1.025391,-0.5205078,-0.8300781,-3.173828
1139,-3,0.75,0.0625,-0.01123047,-0.01513672,1.013672,-0.5205078,-0.8300781,-3.173828
1140,-2.5,0.875,0.125,-0.01513672,-0.007324219,1.013672,-0.5322266,-0.8300781,-3.17627
1144,-2.875,0.75,0.125,-0.01123047,-0.01123047,1.033203,-0.5322266,-0.8300781,-3.17627
1145,-2.875,0.8125,0.1875,-0.01123047,0.007324219,1.017578,-0.5322266,-0.8300781,-3.17627
1149,-2.9375,0.9375,0,-0.02294922,-0.007324219,1.033203,-0.5229492,-0.8344727,-3.184082
1150,-2.6875,0.8125,0,-0.01513672,0,1.033203,-0.5229492,-0.8344727,-3.184082
1154,-2.875,0.8125,0.25,-0.03466797,-0.007324219,1.017578,-0.5229492,-0.8344727,-3.184082
1155,-2.8125,0.625,0.1875,0.003417969,-0.01513672,1.021484,-0.5229492,-0.8344727,-3.184082
1159,-3.125,0.9375,0.3125,-0.01513672,0.003417969,1.017578,-0.5205078,-0.8276367,-3.179199
1160,-2.9375,0.8125,0,-0.01904297,-0.007324219,1.017578,-0.5205078,-0.8276367,-3.179199
1164,-2.8125,0.75,0.0625,-0.02685547,0,0.9985352,-0.5205078,-0.8276367,-3.179199
1165,-3.0625,0.625,0.1875,-0.03466797,0,1.033203,-0.5185547,-0.8300781,-3.184082
1169,-2.6875,0.8125,0.0625,-0.01513672,-0.01513672,1.029297,-0.5185547,-0.8300781,-3.184082
1170,-2.8125,0.875,0.1875,-0.01904297,-0.007324219,1.037109,-0.5185547,-0.8300781,-3.184082
1174,-2.9375,0.9375,0.125,-0.03076172,-0.003417969,1.009766,-0.5253906,-0.8208008,-3.181641
1175,-3,0.875,0.0625,0,0.007324219,1.017578,-0.5253906,-0.8208008,-3.181641
1179,-2.875,0.8125,0.0625,-0.01904297,-0.003417969,1.044922,-0.5253906,-0.8208008,-3.181641
1180,-2.8125,0.75,0.125,-0.02685547,-0.01513672,1.044922,-0.5253906,-0.8208008,-3.181641
1184,-2.8125,0.75,0.1875,-0.01513672,0.007324219,1.033203,-0.5253906,-0.8300781,-3.17627
1185,-3,0.75,0.1875,-0.01513672,-0.003417969,1.013672,-0.5253906,-0.8300781,-3.17627
1189,-2.6875,0.8125,0.125,-0.003417969,-0.01513672,1.033203,-0.5253906,-0.8300781,-3.17627
1190,-3,0.5,0.25,-0.02294922,-0.01513672,1.017578,-0.5185547,-0.8276367,-3.184082
1194,-2.625,0.875,0.25,-0.03466797,-0.01904297,1.005859,-0.5185547,-0.8276367,-3.184082
1195,-2.875,0.875,0.25,-0.02685547,0.01513672,1.025391,-0.5185547,-0.8276367,-3.184082
1199,-3,0.5625,0.3125,-0.01513672,0,1.013672,-0.5185547,-0.8300781,-3.179199
1200,-2.8125,0.875,0,-0.01123047,0.003417969,1.013672,-0.5185547,-0.8300781,-3.179199
1204,-2.9375,0.8125,0.0625,-0.01513672,0.003417969,1.029297,-0.5185547,-0.8300781,-3.179199
1205,-2.75,0.75,0.0625,-0.01123047,-0.007324219,1.005859,-0.5185547,-0.8300781,-3.179199
1209,-3,0.8125,0.0625,-0.01904297,-0.01513672,1.017578,-0.5229492,-0.8251953,-3.173828
1210,-2.875,0.75,0.125,-0.01513672,0.007324219,1.025391,-0.5229492,-0.8251953,-3.173828
1214,-2.875,0.75,0.125,-0.01513672,-0.003417969,1.017578,-0.5229492,-0.8251953,-3.173828
1215,-2.75,1,0.4375,-0.02685547,-0.003417969,1.025391,-0.5229492,-0.8251953,-3.179199
1219,-2.875,0.9375,0.0625,-0.007324219,-0.003417969,1.013672,-0.5229492,-0.8251953,-3.179199
1220,-2.875,0.6875,0.0625,-0.01123047,0.007324219,1.013672,-0.5229492,-0.8251953,-3.179199
1224,-2.9375,0.75,0.125,-0.01904297,-0.01123047,1.025391,-0.5185547,-0.8276367,-3.179199
1225,-2.875,0.875,0.125,-0.02294922,0,1.021484,-0.5185547,-0.8276367,-3.179199
1229,-2.9375,0.9375,0.125,-0.01513672,0,1.021484,-0.5185547,-0.8276367,-3.179199
1230,-2.8125,0.625,0.0625,-0.05419922,0,1.017578,-0.5185547,-0.8276367,-3.179199
1234,-2.6875,0.9375,0.25,-0.03076172,-0.003417969,1.009766,-0.5161133,-0.8232422,-3.194336
1235,-2.875,0.8125,0.1875,-0.01123047,0.01123047,1.029297,-0.5161133,-0.8232422,-3.194336
1239,-2.875,0.875,0,-0.02294922,-0.01513672,1.044922,-0.5161133,-0.8232422,-3.194336
1241,-2.875,0.625,0.25,-0.007324219,0,1.029297,-0.5185547,-0.8232422,-3.189453
1245,-2.875,0.875,0,-0.01123047,-0.01513672,1.013672,-0.5185547,-0.8232422,-3.189453
1246,-3.0625,0.625,0.375,-0.01123047,-0.007324219,1.021484,-0.5185547,-0.8232422,-3.189453
1250,-2.6875,1.0625,0.0625,-0.007324219,-0.02685547,1.009766,-0.5185547,-0.8300781,-3.17627
1251,-2.75,0.5625,0.125,-0.01123047,0.01513672,1.025391,-0.5185547,-0.8300781,-3.17627
1255,-2.875,0.75,0,-0.01513672,0.02294922,1.033203,-0.5185547,-0.8300781,-3.17627
1256,-2.9375,0.625,0.1875,-0.01904297,0.01123047,1.017578,-0.5185547,-0.8300781,-3.17627
1260,-3,1,0.0625,-0.007324219,-0.01123047,1.021484,-0.5185547,-0.8369141,-3.181641
1261,-3,0.625,0.1875,-0.01904297,-0.01123047,1.033203,-0.5185547,-0.8369141,-3.181641
1265,-3,0.75,0.0625,-0.01123047,0,1.025391,-0.5185547,-0.8369141,-3.181641
1266,-2.875,0.9375,0.0625,-0.01513672,-0.02294922,1.013672,-0.5185547,-0.8369141,-3.17627
1270,-2.875,0.875,0.0625,-0.01513672,0,1.025391,-0.5185547,-0.8369141,-3.17627
1271,-3.0625,0.75,0,-0.01513672,0.003417969,1.013672,-0.5185547,-0.8369141,-3.17627
1275,-2.9375,0.8125,0.125,-0.01513672,0.003417969,1.005859,-0.5185547,-0.8208008,-3.187012
1276,-2.875,0.6875,0.3125,-0.02685547,-0.01513672,1.013672,-0.5185547,-0.8208008,-3.187012
1280,-2.6875,0.6875,0,-0.01123047,-0.003417969,1.037109,-0.5185547,-0.8208008,-3.187012
1281,-2.6875,0.8125,0,-0.02685547,0.003417969,1.009766,-0.5185547,-0.8208008,-3.187012
1285,-3,0.75,0.0625,-0.02685547,0.003417969,1.044922,-0.5205078,-0.8276367,-3.184082
1286,-2.6875,0.8125,0.1875,-0.007324219,0.003417969,1.017578,-0.5205078,-0.8276367,-3.184082
1290,-2.75,0.8125,0.1875,-0.03466797,0,1.021484,-0.5205078,-0.8276367,-3.184082
1291,-2.8125,0.625,0.1875,-0.003417969,-0.007324219,1.009766,-0.5161133,-0.8276367,-3.187012
1295,-2.8125,0.875,0.125,-0.01904297,-0.003417969,1.013672,-0.5161133,-0.8276367,-3.187012
1296,-2.9375,0.8125,0.375,-0.02685547,-0.003417969,1.009766,-0.5161133,-0.8276367,-3.187012
1300,-3,1.125,0.125,-0.007324219,-0.007324219,1.025391,-0.5229492,-0.8276367,-3.173828
1301,-2.8125,1,0,-0.01513672,-0.003417969,1.013672,-0.5229492,-0.8276367,-3.173828
1305,-2.625,0.5,0.0625,-0.01513672,-0.003417969,1.013672,-0.5229492,-0.8276367,-3.173828
1306,-3,0.875,0.0625,-0.02685547,-0.003417969,1.044922,-0.5229492,-0.8276367,-3.173828
1310,-2.6875,0.9375,0,-0.02685547,-0.007324219,1.029297,-0.527832,-0.8276367,-3.179199
1311,-3,0.9375,0.375,-0.01904297,-0.01904297,1.068359,-0.527832,-0.8276367,-3.179199
1315,-3.0625,0.625,0.125,-0.01513672,0.01123047,1.033203,-0.527832,-0.8276367,-3.179199
1316,-2.9375,0.875,0.1875,-0.01904297,-0.01513672,1.009766,-0.5253906,-0.8251953,-3.184082
1320,-2.8125,0.625,0,-0.007324219,-0.007324219,1.021484,-0.5253906,-0.8251953,-3.184082
1321,-2.9375,0.6875,0.125,-0.01513672,-0.007324219,1.021484,-0.5253906,-0.8251953,-3.184082
1325,-2.75,0.625,0.125,0,-0.01904297,1.021484,-0.5161133,-0.8300781,-3.179199
1326,-2.6875,0.9375,0,-0.02294922,0,1.021484,-0.5161133,-0.8300781,-3.179199
1330,-2.9375,0.625,0.1875,-0.01513672,0,1.017578,-0.5161133,-0.8300781,-3.179199
1331,-2.8125,0.8125,0.125,-0.01513672,-0.01513672,1.009766,-0.5161133,-0.8300781,-3.179199
1335,-2.875,0.875,0.125,-0.03076172,-0.01123047,1.025391,-0.5297852,-0.8208008,-3.181641
1336,-2.75,0.9375,0,-0.003417969,-0.003417969,1.013672,-0.5297852,-0.8208008,-3.181641
1340,-3,0.5625,0.125,-0.01904297,-0.007324219,1.029297,-0.5297852,-0.8208008,-3.181641
1341,-2.75,0.8125,0.125,-0.01513672,-0.003417969,1.013672,-0.5136719,-0.8183594,-3.184082
1345,-2.875,1.125,0.1875,-0.01513672,0,1.013672,-0.5136719,-0.8183594,-3.184082
1346,-2.8125,0.6875,0,-0.03466797,0.01123047,1.029297,-0.5136719,-0.8183594,-3.184082
1350,-2.875,0.75,0.0625,-0.007324219,0.003417969,1.017578,-0.5185547,-0.8276367,-3.184082
1351,-2.875,0.75,0,-0.007324219,0,1.037109,-0.5185547,-0.8276367,-3.184082
1355,-2.75,0.9375,0.125,-0.01904297,-0.01513672,1.013672,-0.5185547,-0.8276367,-3.184082
1356,-2.8125,0.6875,0.25,0.003417969,0.01123047,1.044922,-0.5185547,-0.8276367,-3.184082
1360,-3,0.9375,0.1875,-0.007324219,-0.007324219,1.013672,-0.5205078,-0.8369141,-3.181641
1361,-3,0.9375,0.125,-0.01123047,0.003417969,1.013672,-0.5205078,-0.8369141,-3.181641
1365,-2.8125,0.9375,0.25,0,-0.003417969,1.009766,-0.5205078,-0.8369141,-3.181641
1366,-3,0.75,0.0625,-0.01513672,-0.01123047,1.025391,-0.5229492,-0.8232422,-3.181641
1370,-3,0.75,0.1875,-0.01123047,-0.01513672,1.025391,-0.5229492,-0.8232422,-3.181641
1371,-2.625,0.6875,0.25,-0.01513672,-0.01123047,1.017578,-0.5229492,-0.8232422,-3.181641
1375,-2.8125,0.9375,0,-0.01513672,-0.01904297,1.017578,-0.5185547,-0.8325195,-3.171387
1376,-2.8125,0.75,-0.0625,-0.007324219,0.003417969,1.033203,-0.5185547,-0.8325195,-3.171387
1380,-3.125,0.875,0,-0.01513672,0.003417969,1.009766,-0.5185547,-0.8325195,-3.171387
1381,-3,0.875,0,-0.02685547,-0.01513672,1.017578,-0.5185547,-0.8325195,-3.171387
1385,-2.875,0.875,0.25,-0.03466797,-0.01904297,1.009766,-0.5185547,-0.8300781,-3.168457
1386,-2.75,0.875,0.0625,-0.01904297,-0.01904297,1.005859,-0.5185547,-0.8300781,-3.168457
1390,-3.1875,1.0625,0.125,-0.003417969,0,1.005859,-0.5185547,-0.8300781,-3.168457
1391,-2.9375,0.75,0.375,-0.003417969,0.003417969,1.013672,-0.527832,-0.8344727,-3.17627
1395,-2.875,0.8125,0.1875,0,0.007324219,1.029297,-0.527832,-0.8344727,-3.17627
1396,-2.9375,0.75,0.1875,-0.01904297,0.003417969,1.025391,-0.527832,-0.8344727,-3.17627
1400,-2.875,0.875,0,-0.01513672,0,1.009766,-0.5229492,-0.8325195,-3.187012
1403,-2.625,0.875,0.375,0,0.003417969,0.9985352,-0.5229492,-0.8325195,-3.187012
1407,-2.8125,0.5,0,0,-0.01513672,1.021484,-0.5229492,-0.8325195,-3.187012
1408,-3,0.875,0,-0.03076172,0.003417969,1.044922,-0.5229492,-0.8325195,-3.187012
1412,-2.6875,0.6875,0.1875,-0.01513672,0,1.009766,-0.5161133,-0.8300781,-3.189453
1413,-2.625,0.9375,0.125,-0.01513672,-0.01123047,1.017578,-0.5161133,-0.8300781,-3.189453
1417,-3.125,0.9375,0.25,-0.01123047,-0.007324219,1.033203,-0.5161133,-0.8300781,-3.189453
1418,-2.875,0.8125,0,-0.01123047,-0.007324219,1.021484,-0.5205078,-0.8208008,-3.179199
1422,-2.8125,0.75,0,-0.007324219,0,1.021484,-0.5205078,-0.8208008,-3.179199
1423,-2.75,1,0.125,-0.02294922,0.007324219,1.017578,-0.5205078,-0.8208008,-3.179199
1427,-2.9375,0.75,0.0625,-0.02294922,0.01904297,1.013672,-0.5185547,-0.8325195,-3.179199
1428,-3,0.9375,0,-0.01123047,0.007324219,1.021484,-0.5185547,-0.8325195,-3.179199
1432,-3.0625,0.75,0.125,0.003417969,-0.007324219,1.013672,-0.5185547,-0.8325195,-3.179199
1433,-2.75,0.9375,0.1875,-0.01513672,-0.007324219,1.033203,-0.5185547,-0.8325195,-3.179199
1437,-3,0.5625,0,-0.01123047,0.007324219,1.033203,-0.5205078,-0.8232422,-3.179199
1438,-2.8125,0.8125,0,-0.01904297,0,1.005859,-0.5205078,-0.8232422,-3.179199
1442,-2.8125,0.9375,0.25,-0.02294922,0,1.005859,-0.5205078,-0.8232422,-3.179199
1443,-3,0.5625,0.25,-0.02294922,-0.01123047,1.029297,-0.5161133,-0.8183594,-3.184082
1447,-2.875,1,0.1875,-0.03076172,-0.007324219,1.037109,-0.5161133,-0.8183594,-3.184082
1448,-3,0.75,0.0625,-0.01513672,0,1.029297,-0.5161133,-0.8183594,-3.184082
1452,-2.625,1.0625,0.125,-0.01123047,-0.01123047,1.029297,-0.5229492,-0.8300781,-3.17627
1453,-2.9375,0.625,0,-0.03466797,-0.02685547,1.029297,-0.5229492,-0.8300781,-3.17627
1457,-3.1875,0.75,0,-0.03466797,0.003417969,1.029297,-0.5229492,-0.8300781,-3.17627
1458,-2.8125,0.8125,0,-0.02685547,-0.003417969,0.9985352,-0.5229492,-0.8300781,-3.17627
1462,-2.8125,0.8125,0,-0.03076172,0,1.025391,-0.5229492,-0.8276367,-3.189453
1463,-2.875,0.75,0.125,-0.03076172,-0.01123047,1.033203,-0.5229492,-0.8276367,-3.189453
1467,-2.75,0.875,0.125,-0.02294922,-0.007324219,1.037109,-0.5229492,-0.8276367,-3.189453
1468,-2.8125,0.75,0.1875,-0.02685547,-0.01123047,1.021484,-0.5229492,-0.8232422,-3.181641
1472,-2.625,0.8125,0.25,-0.01513672,-0.01513672,1.009766,-0.5229492,-0.8232422,-3.181641
1473,-3.125,0.8125,0.1875,-0.01904297,-0.01904297,1.017578,-0.5229492,-0.8232422,-3.181641
1477,-2.75,0.9375,0.1875,0,-0.01513672,1.009766,-0.5185547,-0.8251953,-3.181641
1478,-3,0.6875,0.0625,-0.01513672,-0.007324219,1.021484,-0.5185547,-0.8251953,-3.181641
1482,-2.9375,0.8125,0.125,-0.003417969,-0.02294922,1.025391,-0.5185547,-0.8251953,-3.181641
1483,-2.9375,0.875,0.125,-0.01123047,-0.003417969,1.025391,-0.5185547,-0.8251953,-3.181641
1487,-2.875,1.0625,0.0625,-0.01123047,0,1.013672,-0.5161133,-0.8369141,-3.184082
1488,-2.6875,0.8125,0.125,-0.01904297,-0.01123047,1.033203,-0.5161133,-0.8369141,-3.184082
1492,-3.1875,0.75,0,-0.01513672,-0.003417969,1.025391,-0.5161133,-0.8369141,-3.184082
1493,-2.75,0.5625,0.125,-0.01123047,-0.01123047,1.021484,-0.5136719,-0.8232422,-3.173828
1497,-2.625,0.8125,0.25,-0.01123047,0.01513672,1.021484,-0.5136719,-0.8232422,-3.173828
1498,-2.875,0.8125,-0.0625,-0.007324219,0.007324219,1.037109,-0.5136719,-0.8232422,-3.173828
1502,-2.75,0.8125,0,-0.003417969,-0.01904297,1.001953,-0.527832,-0.8208008,-3.187012
1503,-2.9375,0.8125,0.125,-0.01513672,0,1.060547,-0.527832,-0.8208008,-3.187012
1507,-2.8125,0.9375,0.0625,-0.01904297,0.003417969,1.017578,-0.527832,-0.8208008,-3.187012
1508,-2.9375,0.875,0.0625,-0.03076172,-0.003417969,1.009766,-0.527832,-0.8208008,-3.187012
1512,-3.0625,0.5625,0,-0.02294922,-0.02294922,1.009766,-0.5161133,-0.8208008,-3.181641
1513,-2.75,0.75,0.0625,-0.01513672,-0.003417969,1.017578,-0.5161133,-0.8208008,-3.181641
1517,-2.875,0.875,0.125,-0.02294922,0.01513672,1.041016,-0.5161133,-0.8208008,-3.181641
1518,-2.875,0.625,0.125,-0.02685547,-0.007324219,1.017578,-0.5205078,-0.8325195,-3.17627
1522,-2.875,0.8125,0.25,-0.02685547,-0.007324219,1.017578,-0.5205078,-0.8325195,-3.17627
1523,-2.75,1,0.25,-0.04248047,-0.003417969,1.013672,-0.5205078,-0.8325195,-3.17627
1527,-3.0625,0.6875,0.125,-0.05029297,0,1.025391,-0.5229492,-0.8208008,-3.173828
1528,-2.8125,0.6875,0.125,-0.01123047,-0.01123047,1.021484,-0.5229492,-0.8208008,-3.173828
1532,-2.875,0.625,0.25,-0.01123047,0.003417969,1.017578,-0.5229492,-0.8208008,-3.173828
1533,-2.9375,0.875,0.3125,-0.01904297,-0.01123047,1.005859,-0.5229492,-0.8208008,-3.173828
1537,-3.0625,0.8125,0.125,-0.02294922,-0.02294922,1.021484,-0.5185547,-0.8183594,-3.187012
1538,-3.1875,0.875,0.1875,-0.007324219,-0.007324219,1.044922,-0.5185547,-0.8183594,-3.187012
1542,-2.875,0.8125,0.1875,-0.03076172,0,1.025391,-0.5185547,-0.8183594,-3.187012
1543,-3,0.8125,0.0625,-0.02294922,-0.007324219,0.9985352,-0.5068359,-0.8300781,-3.184082
1547,-2.875,0.9375,0,-0.003417969,-0.003417969,1.017578,-0.5068359,-0.8300781,-3.184082
1548,-3,0.6875,0.125,-0.01123047,-0.01513672,1.013672,-0.5068359,-0.8300781,-3.184082
1552,-2.8125,0.9375,0.0625,-0.02685547,0,1.029297,-0.527832,-0.8300781,-3.187012
1553,-2.875,0.9375,0.25,0.01513672,0,1.017578,-0.527832,-0.8300781,-3.187012
1557,-3.0625,0.8125,0.1875,-0.02685547,-0.003417969,1.009766,-0.527832,-0.8300781,-3.187012
1558,-2.75,0.75,0.0625,-0.03076172,-0.007324219,1.029297,-0.527832,-0.8300781,-3.187012
1562,-3.0625,0.875,0,-0.01123047,-0.01123047,1.021484,-0.5185547,-0.8208008,-3.179199
1564,-2.875,0.8125,0.1875,-0.02685547,-0.003417969,1.017578,-0.5185547,-0.8208008,-3.179199
1568,-2.625,0.9375,0,-0.01904297,-0.003417969,1.029297,-0.5185547,-0.8208008,-3.179199
1569,-2.875,0.625,0.1875,-0.01513672,0.007324219,1.021484,-0.5161133,-0.8251953,-3.181641
1573,-3.125,0.875,0.25,-0.02294922,0,1.044922,-0.5161133,-0.8251953,-3.181641
1574,-2.875,0.875,0.125,-0.03466797,0.003417969,1.029297,-0.5161133,-0.8251953,-3.181641
1578,-2.75,0.8125,0.0625,-0.03466797,-0.003417969,0.9790039,-0.5185547,-0.8325195,-3.173828
1579,-3,0.6875,0.0625,-0.01123047,-0.007324219,1.025391,-0.5185547,-0.8325195,-3.173828
1583,-2.8125,0.9375,0.25,0,-0.007324219,1.025391,-0.5185547,-0.8325195,-3.173828
1584,-2.8125,0.75,0,-0.03076172,-0.01123047,1.017578,-0.5185547,-0.8325195,-3.173828
1588,-2.75,0.8125,0,-0.01123047,-0.01123047,1.021484,-0.5161133,-0.8251953,-3.179199
1589,-2.8125,0.75,0.4375,-0.01123047,-0.007324219,1.029297,-0.5161133,-0.8251953,-3.179199
1593,-2.625,0.875,0,-0.01513672,-0.01513672,1.033203,-0.5161133,-0.8251953,-3.179199
1594,-3.0625,0.9375,0.0625,-0.02294922,-0.003417969,1.017578,-0.5229492,-0.8251953,-3.17627
1598,-3.125,0.5625,0,-0.007324219,-0.01513672,1.021484,-0.5229492,-0.8251953,-3.17627
1599,-2.875,0.625,0.125,0,0.007324219,1.021484,-0.5229492,-0.8251953,-3.17627
1603,-2.6875,0.6875,0,-0.01513672,0.007324219,1.005859,-0.5185547,-0.8344727,-3.17627
1604,-3.125,0.5,0.0625,0.007324219,-0.01123047,1.009766,-0.5185547,-0.8344727,-3.17627
1608,-3.0625,0.6875,0.125,-0.01904297,-0.007324219,1.041016,-0.5185547,-0.8344727,-3.17627
1609,-2.5625,0.875,0.375,-0.02685547,-0.01123047,1.021484,-0.5185547,-0.8344727,-3.17627
1613,-2.6875,0.9375,0.125,-0.01123047,0,1.025391,-0.5161133,-0.8344727,-3.168457
1614,-2.8125,0.625,0.25,-0.02685547,0.003417969,1.013672,-0.5161133,-0.8344727,-3.168457
1618,-2.9375,0.5625,0.3125,-0.03076172,-0.01123047,1.009766,-0.5161133,-0.8344727,-3.168457
1619,-2.5625,0.9375,0.1875,-0.02294922,-0.007324219,1.013672,-0.5185547,-0.8300781,-3.173828
1623,-2.75,0.75,0.0625,-0.02294922,0,1.029297,-0.5185547,-0.8300781,-3.173828
1624,-3.1875,0.75,0,-0.01513672,0.003417969,1.021484,-0.5185547,-0.8300781,-3.173828
1628,-3.0625,0.6875,0,-0.01904297,-0.01123047,1.013672,-0.5205078,-0.8276367,-3.173828
1629,-2.6875,0.8125,0.125,-0.01123047,-0.01513672,1.009766,-0.5205078,-0.8276367,-3.173828
1633,-2.8125,0.8125,0.125,-0.01513672,0.007324219,1.033203,-0.5205078,-0.8276367,-3.173828
1634,-2.8125,0.8125,0.0625,0,0.003417969,1.021484,-0.5205078,-0.8276367,-3.173828
1638,-2.6875,0.8125,0.1875,-0.03466797,-0.003417969,1.029297,-0.5161133,-0.8276367,-3.181641
1639,-2.6875,1.0625,0,-0.03466797,-0.01513672,1.017578,-0.5161133,-0.8276367,-3.181641
1643,-3,0.625,0.0625,-0.01904297,0.01123047,1.017578,-0.5161133,-0.8276367,-3.181641
1644,-2.8125,0.6875,0.25,-0.02685547,-0.01513672,1.044922,-0.5253906,-0.8344727,-3.179199
1648,-2.9375,0.875,0.25,-0.01123047,0.007324219,1.025391,-0.5253906,-0.8344727,-3.179199
1649,-2.8125,0.8125,0.0625,0.003417969,0.003417969,1.044922,-0.5253906,-0.8344727,-3.179199
1653,-3.25,0.6875,0,-0.003417969,-0.01123047,1.029297,-0.5136719,-0.8325195,-3.17627
1654,-2.875,0.6875,0.125,-0.01513672,0.007324219,1.017578,-0.5136719,-0.8325195,-3.17627
1658,-2.75,0.9375,0.3125,0,-0.003417969,1.021484,-0.5136719,-0.8325195,-3.17627
1659,-2.75,0.875,0,-0.03857422,0,1.021484,-0.5136719,-0.8325195,-3.17627
1663,-2.8125,0.875,0,-0.03466797,-0.003417969,1.044922,-0.5205078,-0.8251953,-3.181641
1664,-2.75,0.625,0.1875,-0.02294922,0.01123047,1.021484,-0.5205078,-0.8251953,-3.181641
1668,-2.8125,0.9375,0.0625,-0.03076172,0.01123047,1.044922,-0.5205078,-0.8251953,-3.181641
1669,-3.0625,0.6875,0.25,-0.03076172,-0.01513672,1.025391,-0.5253906,-0.8325195,-3.166016
1673,-2.75,1,0.0625,-0.02685547,-0.007324219,1.009766,-0.5253906,-0.8325195,-3.166016
1674,-2.9375,0.8125,0,-0.02294922,-0.003417969,1.021484,-0.5253906,-0.8325195,-3.166016
1678,-2.875,1,0.0625,-0.003417969,0.01513672,1.025391,-0.5161133,-0.8300781,-3.168457
1679,-3.0625,0.625,0.0625,-0.007324219,-0.003417969,1.021484,-0.5161133,-0.8300781,-3.168457
1683,-2.9375,0.75,0.1875,-0.01513672,-0.01513672,1.025391,-0.5161133,-0.8300781,-3.168457
1684,-3,0.75,0.0625,-0.03466797,-0.007324219,1.021484,-0.5161133,-0.8300781,-3.168457
1688,-3,0.9375,0.1875,-0.02685547,-0.01513672,1.017578,-0.5229492,-0.8300781,-3.181641
1689,-2.625,0.6875,0.25,-0.01123047,-0.007324219,1.033203,-0.5229492,-0.8300781,-3.181641
1693,-2.9375,0.8125,0.1875,-0.02294922,-0.01123047,1.044922,-0.5229492,-0.8300781,-3.181641
1694,-2.8125,0.8125,0,-0.01513672,0.003417969,1.029297,-0.5253906,-0.8300781,-3.171387
1698,-2.875,1,0.1875,-0.02294922,0,0.9946289,-0.5253906,-0.8300781,-3.171387
1699,-2.875,0.6875,0,-0.01513672,-0.007324219,1.001953,-0.5253906,-0.8300781,-3.171387
1703,-3,0.5625,0.25,0,-0.03076172,1.025391,-0.5253906,-0.8300781,-3.184082
1704,-2.9375,0.6875,0.4375,-0.007324219,-0.003417969,1.013672,-0.5253906,-0.8300781,-3.184082
1708,-2.8125,0.9375,0,-0.03466797,-0.007324219,1.048828,-0.5253906,-0.8300781,-3.184082
1709,-2.8125,0.5,0,-0.01513672,0.01123047,1.009766,-0.5253906,-0.8300781,-3.184082
1713,-2.75,1,0.0625,-0.01123047,0.003417969,1.029297,-0.5205078,-0.8300781,-3.184082
1714,-2.875,0.8125,0,-0.01123047,-0.007324219,1.017578,-0.5205078,-0.8300781,-3.184082
1718,-2.8125,0.9375,0.1875,-0.01904297,-0.01123047,1.013672,-0.5205078,-0.8300781,-3.184082
1719,-2.8125,0.875,0.1875,-0.02685547,-0.01123047,1.029297,-0.5253906,-0.8325195,-3.17627
1723,-2.9375,0.625,0.125,0,-0.01123047,1.021484,-0.5253906,-0.8325195,-3.17627
1725,-2.5625,1.125,0.1875,-0.02294922,0.007324219,1.025391,-0.5253906,-0.8325195,-3.17627
1729,-2.6875,0.75,0.1875,-0.03466797,0,1.005859,-0.5185547,-0.8393555,-3.17627
1730,-2.8125,0.875,0.0625,-0.02294922,-0.003417969,1.017578,-0.5185547,-0.8393555,-3.17627
1734,-2.9375,0.75,0,-0.01513672,-0.01123047,1.052734,-0.5185547,-0.8393555,-3.17627
1735,-2.6875,0.6875,0.3125,-0.007324219,0,1.044922,-0.5185547,-0.8393555,-3.17627
1739,-2.875,0.4375,0.25,-0.02685547,-0.003417969,1.013672,-0.5229492,-0.8251953,-3.181641
1740,-2.75,0.6875,0.0625,-0.01123047,0.003417969,1.037109,-0.5229492,-0.8251953,-3.181641
1744,-2.6875,0.6875,0,-0.007324219,0.01123047,1.025391,-0.5229492,-0.8251953,-3.181641
1745,-2.625,1,0.3125,-0.007324219,0.003417969,1.029297,-0.5161133,-0.8183594,-3.189453
1749,-3.0625,0.375,0.125,-0.01904297,0.01123047,1.044922,-0.5161133,-0.8183594,-3.189453
1750,-3,0.8125,0.125,-0.01123047,0.003417969,1.029297,-0.5161133,-0.8183594,-3.189453
1754,-2.8125,0.8125,0.25,-0.01904297,0,1.017578,-0.5205078,-0.8232422,-3.173828
1755,-2.8125,0.625,0.0625,-0.003417969,-0.003417969,1.013672,-0.5205078,-0.8232422,-3.173828
1759,-2.9375,0.8125,0,-0.01123047,0,1.009766,-0.5205078,-0.8232422,-3.173828
1760,-3,0.9375,0.0625,-0.02685547,-0.01513672,1.044922,-0.5205078,-0.8232422,-3.173828
1764,-2.5,0.8125,0.125,-0.01513672,-0.007324219,1.013672,-0.527832,-0.8325195,-3.181641
1765,-3,0.75,0.1875,-0.007324219,-0.007324219,1.009766,-0.527832,-0.8325195,-3.181641
1769,-3.0625,0.5625,0.125,-0.01513672,0.01123047,1.009766,-0.527832,-0.8325195,-3.181641
1770,-2.75,0.8125,0.125,-0.03076172,-0.02685547,1.009766,-0.5297852,-0.8251953,-3.184082
1774,-2.9375,0.875,0.0625,-0.01513672,-0.01904297,1.001953,-0.5297852,-0.8251953,-3.184082
1775,-2.6875,0.875,0.0625,-0.01513672,-0.007324219,1.037109,-0.5297852,-0.8251953,-3.184082
1779,-3.0625,0.875,0.125,-0.01904297,-0.003417969,1.025391,-0.5205078,-0.8325195,-3.179199
1780,-2.9375,0.875,0.125,-0.01513672,-0.01123047,1.013672,-0.5205078,-0.8325195,-3.179199
1784,-2.5,1.125,0.3125,-0.03076172,0,1.009766,-0.5205078,-0.8325195,-3.179199
1785,-2.9375,0.5625,0.125,-0.01123047,-0.007324219,1.029297,-0.5205078,-0.8325195,-3.179199
1789,-2.9375,0.6875,0.0625,-0.007324219,0,1.033203,-0.5161133,-0.8251953,-3.181641
1790,-2.9375,0.875,0.25,-0.03076172,-0.003417969,1.017578,-0.5161133,-0.8251953,-3.181641
1794,-3.0625,0.8125,0.0625,-0.04248047,-0.01123047,1.017578,-0.5161133,-0.8251953,-3.181641
1795,-3.0625,0.625,0.0625,-0.01513672,0,1.029297,-0.5185547,-0.8251953,-3.17627
1799,-2.875,0.625,0.125,-0.007324219,0.01123047,1.033203,-0.5185547,-0.8251953,-3.17627
1800,-2.6875,0.625,0.25,-0.01904297,-0.01513672,1.005859,-0.5185547,-0.8251953,-3.17627
1804,-2.875,0.8125,0.1875,-0.003417969,0.01123047,1.044922,-0.5205078,-0.8251953,-3.179199
1805,-3.125,0.875,0,-0.01513672,-0.003417969,1.044922,-0.5205078,-0.8251953,-3.179199
1809,-2.9375,1,0.125,-0.01513672,0.007324219,1.017578,-0.5205078,-0.8251953,-3.179199
1810,-2.8125,1.0625,0.25,-0.03466797,-0.01123047,1.001953,-0.5205078,-0.8251953,-3.179199
1814,-2.9375,0.6875,0,-0.003417969,0.01123047,1.025391,-0.5161133,-0.8325195,-3.179199
1815,-3,0.625,0.0625,-0.01513672,0.003417969,1.044922,-0.5161133,-0.8325195,-3.179199
1819,-2.9375,0.8125,0,-0.02685547,0.003417969,1.033203,-0.5161133,-0.8325195,-3.179199
1820,-2.875,0.875,0.0625,0,0.01513672,1.021484,-0.5205078,-0.8344727,-3.191895
1824,-3.0625,0.6875,0.125,0.007324219,-0.003417969,1.013672,-0.5205078,-0.8344727,-3.191895
1825,-2.9375,0.625,0.0625,-0.01904297,0,1.013672,-0.5205078,-0.8344727,-3.191895
1829,-3,0.625,0.125,-0.01123047,0,1.009766,-0.5185547,-0.8300781,-3.181641
1830,-3,0.9375,0.25,-0.007324219,-0.003417969,1.029297,-0.5185547,-0.8300781,-3.181641
1834,-3.0625,0.75,0.0625,-0.01123047,-0.003417969,1.021484,-0.5185547,-0.8300781,-3.181641
1835,-2.875,0.8125,0.125,-0.01513672,-0.003417969,1.033203,-0.5185547,-0.8300781,-3.181641
1839,-2.75,1.0625,0.0625,-0.01904297,-0.01123047,1.017578,-0.5161133,-0.8300781,-3.187012
1840,-2.8125,0.6875,0.25,-0.01123047,-0.007324219,1.013672,-0.5161133,-0.8300781,-3.187012
1844,-3.125,0.6875,0.1875,-0.003417969,-0.01513672,1.033203,-0.5161133,-0.8300781,-3.187012
1845,-2.9375,0.875,0,0.007324219,0,1.017578,-0.5161133,-0.8232422,-3.189453
1849,-3,0.75,0.1875,-0.01513672,0,1.013672,-0.5161133,-0.8232422,-3.189453
1850,-2.75,0.6875,0.125,-0.01904297,-0.01123047,1.021484,-0.5161133,-0.8232422,-3.189453
1854,-3,0.625,0.0625,0,0.007324219,1.017578,-0.5205078,-0.8276367,-3.181641
1855,-3.125,0.875,0.3125,-0.03076172,-0.003417969,1.044922,-0.5205078,-0.8276367,-3.181641
1859,-2.875,1,0.125,-0.007324219,-0.003417969,1.025391,-0.5205078,-0.8276367,-3.181641
1860,-2.875,0.5,0,-0.01123047,0.003417969,1.033203,-0.5205078,-0.8276367,-3.181641
1864,-3.0625,0.875,0,-0.03466797,-0.01123047,1.009766,-0.5136719,-0.8300781,-3.173828
1865,-3.0625,0.75,0.125,-0.02685547,-0.01904297,1.021484,-0.5136719,-0.8300781,-3.173828
1869,-3,0.875,0.0625,0.003417969,-0.003417969,1.021484,-0.5136719,-0.8300781,-3.173828
1870,-2.8125,0.6875,0.4375,-0.02685547,0.003417969,1.021484,-0.5185547,-0.8325195,-3.179199
1874,-2.875,0.5625,0.1875,-0.02294922,0,1.044922,-0.5185547,-0.8325195,-3.179199
1875,-2.625,0.9375,0.0625,-0.02294922,-0.003417969,1.017578,-0.5185547,-0.8325195,-3.179199
1879,-2.75,0.875,0.0625,-0.01123047,-0.01123047,1.021484,-0.527832,-0.8325195,-3.171387
1880,-2.6875,0.6875,0.1875,-0.02294922,-0.007324219,1.044922,-0.527832,-0.8325195,-3.171387
1884,-3,0.8125,0.25,-0.01123047,-0.003417969,1.021484,-0.527832,-0.8325195,-3.171387
1886,-2.75,0.8125,0.1875,-0.03076172,0,1.009766,-0.527832,-0.8325195,-3.171387
1890,-2.6875,0.9375,0,-0.01123047,0,1.029297,-0.5161133,-0.8276367,-3.179199
1891,-3,0.875,0.1875,0.007324219,-0.01904297,1.025391,-0.5161133,-0.8276367,-3.179199
1895,-2.8125,0.6875,0,-0.01513672,-0.01513672,1.025391,-0.5161133,-0.8276367,-3.179199
1896,-2.9375,0.75,0.25,-0.01513672,-0.01123047,1.017578,-0.5205078,-0.8344727,-3.187012
1900,-2.75,1,0.0625,-0.01904297,0.01123047,1.017578,-0.5205078,-0.8344727,-3.187012
1901,-3,0.875,0,-0.02294922,-0.01513672,1.025391,-0.5205078,-0.8344727,-3.187012
1905,-2.875,0.75,0.25,-0.01513672,0,1.029297,-0.5253906,-0.8251953,-3.187012
1906,-2.9375,0.8125,0.1875,-0.03466797,0,1.009766,-0.5253906,-0.8251953,-3.187012
1910,-3.1875,0.8125,0.125,-0.02685547,-0.01513672,1.029297,-0.5253906,-0.8251953,-3.187012
1911,-3.125,0.8125,0.125,-0.03076172,0,1.029297,-0.5253906,-0.8251953,-3.187012
1915,-3,0.875,0.125,-0.01513672,-0.007324219,1.017578,-0.5253906,-0.8325195,-3.179199
1916,-2.8125,0.6875,0.1875,-0.01513672,-0.007324219,1.005859,-0.5253906,-0.8325195,-3.179199
1920,-2.9375,1,0.0625,-0.03466797,0.007324219,1.021484,-0.5253906,-0.8325195,-3.179199
1921,-3.125,0.75,0.125,-0.003417969,-0.003417969,1.029297,-0.5185547,-0.8344727,-3.17627
1925,-2.75,0.9375,0,-0.01513672,0,1.029297,-0.5185547,-0.8344727,-3.17627
1926,-3.125,0.8125,0.25,-0.003417969,-0.01123047,1.029297,-0.5185547,-0.8344727,-3.17627
1930,-2.9375,0.75,0.3125,-0.01513672,-0.007324219,1.009766,-0.5322266,-0.8251953,-3.179199
1931,-2.75,0.625,0,-0.01123047,-0.003417969,1.017578,-0.5322266,-0.8251953,-3.179199
1935,-2.8125,0.6875,0.0625,-0.02685547,-0.01904297,1.021484,-0.5322266,-0.8251953,-3.179199
1936,-2.9375,0.75,0,-0.03857422,0.02294922,1.025391,-0.5322266,-0.8251953,-3.179199
1940,-2.9375,0.625,0.0625,-0.007324219,-0.003417969,1.009766,-0.5185547,-0.8276367,-3.184082
1941,-3,0.8125,0.0625,-0.01123047,0.003417969,1.044922,-0.5185547,-0.8276367,-3.184082
1945,-2.75,0.75,0.125,-0.03466797,-0.007324219,1.044922,-0.5185547,-0.8276367,-3.184082
1946,-2.875,0.875,0.1875,-0.02685547,0.01123047,1.017578,-0.5185547,-0.8232422,-3.181641
1950,-2.75,0.9375,0,-0.02294922,-0.01513672,1.044922,-0.5185547,-0.8232422,-3.181641
1951,-2.875,0.8125,0.1875,-0.007324219,0.003417969,1.009766,-0.5185547,-0.8232422,-3.181641
1955,-2.75,1.0625,0,-0.02294922,0,1.017578,-0.5136719,-0.8276367,-3.181641
1956,-2.75,0.8125,0.1875,-0.03466797,0,1.009766,-0.5136719,-0.8276367,-3.181641
1960,-3.1875,0.8125,0.125,-0.01513672,0,0.9946289,-0.5136719,-0.8276367,-3.181641
1961,-2.75,0.75,-0.0625,-0.007324219,0,1.017578,-0.5136719,-0.8276367,-3.181641
1965,-2.8125,0.6875,0.375,0.003417969,-0.007324219,1.029297,-0.5205078,-0.8251953,-3.184082
1966,-2.8125,0.6875,-0.0625,-0.01513672,-0.01123047,1.029297,-0.5205078,-0.8251953,-3.184082
1970,-3,0.75,0.1875,-0.003417969,-0.003417969,1.029297,-0.5205078,-0.8251953,-3.184082
1971,-3.0625,0.875,0.1875,-0.02294922,-0.02294922,1.013672,-0.5161133,-0.8300781,-3.166016
1975,-2.875,0.9375,0.125,-0.01904297,-0.01123047,1.001953,-0.5161133,-0.8300781,-3.166016
1976,-2.9375,0.6875,0.1875,-0.02685547,-0.003417969,1.033203,-0.5161133,-0.8300781,-3.166016
1980,-2.9375,0.875,0.0625,-0.03076172,0.007324219,1.001953,-0.5205078,-0.8325195,-3.181641
1981,-2.5625,0.6875,0.3125,-0.01904297,-0.01904297,1.037109,-0.5205078,-0.8325195,-3.181641
1985,-2.8125,0.8125,0.1875,-0.02685547,-0.01513672,1.044922,-0.5205078,-0.8325195,-3.181641
1986,-2.9375,0.75,0.125,-0.03466797,-0.007324219,1.013672,-0.5205078,-0.8325195,-3.181641
1990,-3,0.75,0.0625,-0.007324219,-0.007324219,1.017578,-0.527832,-0.8300781,-3.17627
1991,-2.8125,0.8125,0.0625,0,-0.007324219,1.033203,-0.527832,-0.8300781,-3.17627
1995,-3,0.8125,-0.0625,-0.003417969,-0.007324219,1.009766,-0.527832,-0.8300781,-3.17627
1996,-2.75,0.6875,0.0625,-0.03076172,0.007324219,1.025391,-0.5161133,-0.8276367,-3.179199
2000,-2.75,0.625,0.125,-0.02294922,-0.003417969,1.044922,-0.5161133,-0.8276367,-3.179199
2001,-2.9375,0.9375,0.125,-0.01123047,0.007324219,1.017578,-0.5161133,-0.8276367,-3.179199
2005,-2.875,0.5,0.0625,-0.01904297,-0.003417969,1.009766,-0.5205078,-0.8325195,-3.171387
2006,-3,0.75,0.25,-0.003417969,-0.003417969,1.017578,-0.5205078,-0.8325195,-3.171387
2010,-2.8125,0.8125,0.1875,-0.003417969,0,1.021484,-0.5205078,-0.8325195,-3.171387
2011,-2.9375,0.875,0.25,-0.01513672,0.01513672,1.029297,-0.5205078,-0.8325195,-3.171387
2015,-2.9375,0.875,0,-0.01904297,0.003417969,1.013672,-0.5205078,-0.8251953,-3.17627
2016,-3.0625,0.6875,0.1875,-0.02685547,-0.01123047,1.029297,-0.5205078,-0.8251953,-3.17627
2020,-2.9375,1,0.125,-0.02294922,-0.003417969,1.048828,-0.5205078,-0.8251953,-3.17627
2021,-2.875,0.625,0.25,-0.007324219,-0.01904297,1.029297,-0.5253906,-0.8251953,-3.17627
2025,-2.875,0.75,0,0,-0.003417969,1.025391,-0.5253906,-0.8251953,-3.17627
2026,-2.6875,0.875,0.25,-0.01123047,-0.007324219,1.001953,-0.5253906,-0.8251953,-3.17627
2030,-2.75,0.8125,0.3125,-0.01123047,-0.01513672,1.033203,-0.5136719,-0.8276367,-3.17627
2031,-2.6875,0.9375,0.25,-0.03857422,-0.01513672,1.037109,-0.5136719,-0.8276367,-3.17627
2035,-3.125,0.75,0.25,-0.03076172,0.007324219,1.029297,-0.5136719,-0.8276367,-3.17627
2036,-2.875,0.8125,0.125,-0.007324219,0.003417969,1.037109,-0.5136719,-0.8276367,-3.17627
2040,-2.6875,1,0.125,-0.01513672,0,1.029297,-0.527832,-0.8325195,-3.179199
2041,-2.6875,1,0.0625,-0.01123047,0,1.048828,-0.527832,-0.8325195,-3.179199
2045,-2.875,0.8125,0.25,-0.02685547,-0.01123047,1.017578,-0.527832,-0.8325195,-3.179199
2048,-2.9375,0.75,0.125,-0.02294922,0.003417969,1.052734,-0.5229492,-0.8251953,-3.173828
2052,-2.875,0.5625,0.3125,-0.03076172,-0.003417969,1.017578,-0.5229492,-0.8251953,-3.173828
2053,-2.875,0.8125,0.4375,-0.003417969,0.01123047,1.021484,-0.5229492,-0.8251953,-3.173828
2057,-2.8125,0.625,0.3125,-0.007324219,0.01123047,0.9946289,-0.5161133,-0.8251953,-3.187012
2058,-2.8125,0.625,0,-0.02685547,-0.01123047,1.033203,-0.5161133,-0.8251953,-3.187012
2062,-2.9375,0.9375,0.0625,-0.01513672,-0.01513672,1.029297,-0.5161133,-0.8251953,-3.187012
2063,-2.875,0.75,0.125,-0.003417969,0,1.009766,-0.5161133,-0.8251953,-3.187012
2067,-2.8125,0.5625,0,-0.003417969,0.003417969,1.033203,-0.5205078,-0.8251953,-3.194336
2068,-2.9375,0.8125,0,-0.007324219,0,1.021484,-0.5205078,-0.8251953,-3.194336
2072,-3,0.8125,0.1875,-0.01513672,-0.01904297,1.037109,-0.5205078,-0.8251953,-3.194336
2073,-2.75,0.6875,0,-0.01513672,-0.003417969,1.033203,-0.5253906,-0.8276367,-3.187012
2077,-3.125,0.8125,0.0625,-0.03466797,-0.01123047,1.017578,-0.5253906,-0.8276367,-3.187012
2078,-2.75,0.75,0.1875,-0.01123047,-0.01123047,1.009766,-0.5253906,-0.8276367,-3.187012
2082,-2.8125,0.8125,0.3125,-0.03076172,0.01513672,1.017578,-0.5229492,-0.8300781,-3.187012
2083,-2.875,1,0,-0.01513672,-0.007324219,1.009766,-0.5229492,-0.8300781,-3.187012
2087,-2.9375,0.8125,0.125,-0.01513672,-0.02294922,1.013672,-0.5229492,-0.8300781,-3.187012
2088,-2.9375,0.625,0,-0.007324219,-0.01123047,1.029297,-0.5229492,-0.8300781,-3.187012
2092,-2.875,0.9375,0.0625,-0.02685547,-0.003417969,1.005859,-0.5112305,-0.8276367,-3.17627
2093,-2.875,0.75,0.0625,-0.007324219,0.003417969,1.025391,-0.5112305,-0.8276367,-3.17627
2097,-3,0.75,0.1875,0,0.003417969,1.025391,-0.5112305,-0.8276367,-3.17627
2098,-2.8125,0.875,0,-0.01123047,0.003417969,1.044922,-0.5205078,-0.8251953,-3.179199
2102,-2.6875,0.9375,0.0625,-0.01513672,-0.01123047,1.029297,-0.5205078,-0.8251953,-3.179199
2103,-3,0.6875,0.125,-0.01904297,-0.01123047,1.025391,-0.5205078,-0.8251953,-3.179199
2107,-3.0625,0.8125,0.1875,0,-0.01904297,1.013672,-0.5161133,-0.8300781,-3.173828
2108,-2.875,0.9375,0,-0.03076172,-0.003417969,1.025391,-0.5161133,-0.8300781,-3.173828
2112,-2.9375,1,0.125,-0.003417969,-0.007324219,1.017578,-0.5161133,-0.8300781,-3.173828
2113,-3,0.625,0.1875,-0.01904297,-0.007324219,1.029297,-0.5161133,-0.8300781,-3.173828
2117,-2.8125,0.75,0.25,0.007324219,0.003417969,1.029297,-0.5205078,-0.8300781,-3.168457
2118,-2.9375,0.9375,0.0625,-0.003417969,-0.01513672,1.017578,-0.5205078,-0.8300781,-3.168457
2122,-2.8125,0.6875,0.125,-0.02294922,-0.01123047,1.033203,-0.5205078,-0.8300781,-3.168457
2123,-2.875,0.625,0.1875,-0.01123047,-0.01123047,1.025391,-0.5185547,-0.8183594,-3.17627
2127,-2.9375,0.625,0.125,-0.01513672,0.01513672,1.037109,-0.5185547,-0.8183594,-3.17627
2128,-3,0.875,0.0625,-0.01123047,0,1.033203,-0.5185547,-0.8183594,-3.17627
2132,-0.75,3.3125,1,0.003417969,0.1206055,0.9868164,-0.5136719,-0.8325195,-3.179199
2133,-7.5,-5,-2.5,-0.02294922,-0.01904297,1.064453,-0.5136719,-0.8325195,-3.179199
2137,-7.6875,-1.75,-1.0625,-0.003417969,-0.1713867,0.9829102,-0.5136719,-0.8325195,-3.179199
2138,-0.0625,1.6875,2.125,-0.01123047,0.03466797,1.111328,-0.5136719,-0.8325195,-3.179199
2142,-4.9375,-0.1875,0.5,0,0.1557617,1.060547,-0.5185547,-0.8300781,-3.17627
2143,-2.25,1,-0.8125,-0.007324219,-0.003417969,0.9985352,-0.5185547,-0.8300781,-3.17627
2147,-4.5625,0.25,-0.25,0.01123047,-0.02685547,1.083984,-0.5185547,-0.8300781,-3.17627
2148,-2.875,1.125,1.25,-0.03076172,0.05419922,1.048828,-0.5229492,-0.8251953,-3.171387
2152,-1.6875,1.4375,0.0625,-0.01123047,0.04638672,1.013672,-0.5229492,-0.8251953,-3.171387
2153,-5.125,-0.5625,-0.375,-0.01904297,-0.02294922,1.064453,-0.5229492,-0.8251953,-3.171387
2157,-1.875,1.3125,0.25,-0.04638672,-0.03466797,1.025391,-0.5253906,-0.8276367,-3.179199
2158,-2.4375,1,0.875,0.007324219,0.03466797,1.017578,-0.5253906,-0.8276367,-3.179199
2162,-3.75,0,-0.4375,-0.007324219,0,1.021484,-0.5253906,-0.8276367,-3.179199
2163,-2,0.75,0.125,-0.01904297,-0.01123047,1.037109,-0.5253906,-0.8276367,-3.179199
2167,-2.25,2.25,0.9375,-0.01513672,-0.01513672,1.013672,-0.5161133,-0.8276367,-3.179199
2168,-2.625,0.3125,0,-0.01123047,0.01904297,0.9946289,-0.5161133,-0.8276367,-3.179199
2172,-5.1875,-0.9375,-0.8125,-0.007324219,0.01513672,1.013672,-0.5161133,-0.8276367,-3.179199
2173,-1.75,1.5,0.25,-0.01904297,-0.02685547,1.021484,-0.5229492,-0.8344727,-3.181641
2177,-1.625,1.625,1,-0.03466797,-0.01123047,1.021484,-0.5229492,-0.8344727,-3.181641
2178,-4.375,0.5,-0.3125,-0.01904297,0.01513672,0.9868164,-0.5229492,-0.8344727,-3.181641
2182,-2.8125,0.4375,-0.5,-0.01123047,-0.01904297,1.029297,-0.5185547,-0.8251953,-3.17627
2183,-2.5,1.6875,0.6875,-0.02685547,-0.01904297,1.052734,-0.5185547,-0.8251953,-3.17627
2187,-2.1875,1.375,0.8125,-0.02685547,0.01123047,0.9868164,-0.5185547,-0.8251953,-3.17627
2188,-4.375,-0.5625,-0.75,-0.01904297,0.01123047,1.029297,-0.5185547,-0.8251953,-3.17627
2192,-3.25,0.1875,-0.25,-0.01513672,-0.01904297,1.044922,-0.5229492,-0.8325195,-3.171387
2193,-1.3125,2.125,1.25,-0.02685547,-0.03076172,1.009766,-0.5229492,-0.8325195,-3.171387
2197,-3.375,1.1875,0.3125,0,0.007324219,1.009766,-0.5229492,-0.8325195,-3.171387
2198,-3.5625,0.0625,-0.5,-0.01123047,0,1.021484,-0.5185547,-0.8300781,-3.181641
2202,-3,1.1875,0.125,-0.01904297,-0.01904297,1.060547,-0.5185547,-0.8300781,-3.181641
2203,-2.0625,1.375,0.6875,-0.01904297,-0.007324219,1.052734,-0.5185547,-0.8300781,-3.181641
2207,-3.25,0.25,0,-0.01513672,-0.01123047,1.017578,-0.5185547,-0.8276367,-3.17627
2209,-3.8125,0,-0.3125,-0.01513672,0,1.029297,-0.5185547,-0.8276367,-3.17627
2213,-2.1875,1.5625,0.4375,-0.02294922,-0.01513672,1.037109,-0.5185547,-0.8276367,-3.17627
2214,-2.4375,1.125,0.5625,-0.02294922,0.01123047,1.005859,-0.5185547,-0.8276367,-3.17627
2218,-3.5,0.1875,-0.1875,-0.01123047,0,1.025391,-0.5229492,-0.8300781,-3.184082
2219,-3.1875,0.5625,0,-0.01904297,-0.01123047,1.044922,-0.5229492,-0.8300781,-3.184082
2223,-2.375,1,0.5,-0.02294922,-0.007324219,1.044922,-0.5229492,-0.8300781,-3.184082
2224,-2.6875,0.9375,0.3125,-0.02685547,0.007324219,1.013672,-0.5185547,-0.8232422,-3.184082
2228,-3.375,0,-0.125,-0.02294922,-0.007324219,1.005859,-0.5185547,-0.8232422,-3.184082
2229,-2.9375,0.875,0.125,-0.01513672,-0.01513672,1.044922,-0.5185547,-0.8232422,-3.184082
2233,-2.3125,1.8125,0.375,-0.01904297,-0.01513672,1.001953,-0.5205078,-0.8300781,-3.166016
2234,-3.0625,1,0.1875,0,-0.003417969,0.9985352,-0.5205078,-0.8300781,-3.166016
2238,-3.5,0.0625,-0.0625,-0.003417969,0,1.029297,-0.5205078,-0.8300781,-3.166016
2239,-2.5,1.0625,0.125,-0.01513672,0.003417969,1.021484,-0.5205078,-0.8300781,-3.166016
2243,-2.5,1,0.4375,-0.03076172,0,1.001953,-0.5185547,-0.8325195,-3.173828
2244,-3.25,0.25,0.125,-0.01123047,0.01904297,1.021484,-0.5185547,-0.8325195,-3.173828
2248,-3.375,0.6875,0.1875,-0.007324219,-0.01904297,1.021484,-0.5185547,-0.8325195,-3.173828
2249,-2.3125,1.1875,0.0625,0,-0.007324219,1.013672,-0.5161133,-0.815918,-3.179199
2253,-2.75,1.125,0.375,-0.01904297,0.003417969,1.029297,-0.5161133,-0.815918,-3.179199
2254,-3.5625,0.5625,-0.1875,-0.003417969,-0.003417969,1.044922,-0.5161133,-0.815918,-3.179199
2258,-3.125,0.6875,0,-0.01123047,-0.003417969,1.033203,-0.5185547,-0.8325195,-3.173828
2259,-2.5,1.0625,0.3125,0,0.007324219,1.037109,-0.5185547,-0.8325195,-3.173828
2263,-2.8125,0.9375,0.1875,-0.01513672,0.01513672,1.017578,-0.5185547,-0.8325195,-3.173828
2264,-2.9375,0.5,0,-0.01513672,-0.003417969,1.021484,-0.5185547,-0.8325195,-3.173828
2268,-2.875,1.0625,0.25,-0.03076172,-0.003417969,1.025391,-0.5136719,-0.8251953,-3.181641
2269,-2.5625,1.1875,0.4375,-0.007324219,-0.01123047,1.044922,-0.5136719,-0.8251953,-3.181641
2273,-3,0.625,0.0625,0,-0.003417969,1.029297,-0.5136719,-0.8251953,-3.181641
2274,-3.375,0.4375,0,-0.01904297,-0.01123047,1.041016,-0.5253906,-0.8276367,-3.179199
2278,-2.75,0.5,0,-0.03857422,0.007324219,1.029297,-0.5253906,-0.8276367,-3.179199
2279,-2.75,0.8125,0.125,-0.03076172,-0.02294922,0.9946289,-0.5253906,-0.8276367,-3.179199
2283,-2.875,0.8125,0.0625,-0.02294922,0,1.001953,-0.5205078,-0.8300781,-3.168457
2284,-2.9375,0.6875,0.125,-0.03076172,0.003417969,1.029297,-0.5205078,-0.8300781,-3.168457
2288,-2.8125,1.25,0.25,-0.007324219,0.003417969,1.037109,-0.5205078,-0.8300781,-3.168457
2289,-2.8125,0.75,0.1875,-0.01513672,0.01513672,1.017578,-0.5205078,-0.8300781,-3.168457
2293,-3,0.5625,0,-0.01513672,-0.003417969,1.029297,-0.5205078,-0.8232422,-3.179199
2294,-2.875,1.0625,0.125,-0.01513672,-0.003417969,1.044922,-0.5205078,-0.8232422,-3.179199
2298,-2.75,1.125,0.4375,-0.01904297,-0.01904297,1.005859,-0.5205078,-0.8232422,-3.179199
2299,-3.1875,1,0.3125,-0.03857422,-0.02685547,1.005859,-0.5136719,-0.8251953,-3.17627
2303,-3.0625,0.75,0,-0.03076172,-0.003417969,1.033203,-0.5136719,-0.8251953,-3.17627
2304,-3,0.75,0,-0.02294922,-0.003417969,1.029297,-0.5136719,-0.8251953,-3.17627
2308,-2.8125,0.8125,0.125,0.01513672,0.003417969,1.029297,-0.5205078,-0.8276367,-3.173828
2309,-2.75,0.5,0.5,-0.007324219,0.007324219,1.013672,-0.5205078,-0.8276367,-3.173828
2313,-2.875,0.8125,0,-0.01513672,-0.01513672,1.033203,-0.5205078,-0.8276367,-3.173828
2314,-2.75,1.125,0.1875,-0.02685547,-0.003417969,1.021484,-0.5205078,-0.8276367,-3.173828
2318,-2.9375,1.125,0.1875,-0.03857422,-0.007324219,1.025391,-0.5161133,-0.8208008,-3.179199
2319,-3.0625,0.8125,0.1875,-0.007324219,-0.007324219,1.021484,-0.5161133,-0.8208008,-3.179199
2323,-3.1875,0.875,0,-0.02685547,-0.01513672,1.021484,-0.5161133,-0.8208008,-3.179199
2324,-2.6875,0.625,0.1875,-0.03466797,-0.01123047,1.013672,-0.5229492,-0.8300781,-3.17627
2328,-2.75,0.8125,0.1875,-0.01513672,0.003417969,1.009766,-0.5229492,-0.8300781,-3.17627
2329,-2.875,0.5625,0.0625,-0.03076172,-0.003417969,1.021484,-0.5229492,-0.8300781,-3.17627
2333,-3,0.8125,0.1875,-0.007324219,-0.01904297,1.037109,-0.527832,-0.8251953,-3.184082
2334,-2.75,0.9375,0.4375,-0.007324219,-0.01123047,1.021484,-0.527832,-0.8251953,-3.184082
2338,-2.6875,0.625,0,-0.03857422,0.01123047,1.009766,-0.527832,-0.8251953,-3.184082
2339,-0.4375,3.5,0.75,0,-0.08154297,0.9047852,-0.527832,-0.8251953,-3.184082
2343,-7.3125,-4.3125,-1.625,0.01904297,0.05419922,1.111328,-0.5112305,-0.8251953,-3.171387
2344,-6.5625,-1.6875,-1.0625,-0.04638672,0.159668,1.119141,-0.5112305,-0.8251953,-3.171387
2348,-1.3125,1,2.0625,0.02294922,-0.05810547,0.9750977,-0.5112305,-0.8251953,-3.171387
2349,-4.1875,0.5625,0.5,-0.007324219,-0.05810547,0.9282227,-0.5185547,-0.8276367,-3.173828
2353,-1.75,1.375,-0.75,-0.03466797,0.03076172,0.9829102,-0.5185547,-0.8276367,-3.173828
2354,-4,0.25,-0.1875,-0.007324219,-0.007324219,1.029297,-0.5185547,-0.8276367,-3.173828
2358,-2.5,1.1875,1.3125,-0.04248047,-0.06982422,0.9555664,-0.5229492,-0.8325195,-3.179199
2359,-1.9375,0.9375,0,-0.01123047,0.01123047,0.9907227,-0.5229492,-0.8325195,-3.179199
2363,-5,-0.625,-0.5,-0.03076172,-0.01123047,1.052734,-0.5229492,-0.8325195,-3.179199
2364,-1.8125,1.0625,0.125,-0.01123047,-0.01904297,1.009766,-0.5229492,-0.8325195,-3.179199
2368,-2.625,1,0.9375,-0.01123047,-0.02685547,1.005859,-0.5185547,-0.8251953,-3.179199
2370,-3.625,0.25,-0.25,0,-0.007324219,0.9985352,-0.5185547,-0.8251953,-3.179199
2374,-2.5,0.75,0,-0.003417969,-0.02685547,1.041016,-0.5185547,-0.8251953,-3.179199
2375,-2.0625,2.1875,1,-0.02685547,-0.01513672,0.9946289,-0.5205078,-0.8251953,-3.166016
2379,-2.625,0.4375,0.125,-0.007324219,0.003417969,1.005859,-0.5205078,-0.8251953,-3.166016
2380,-5,-0.625,-0.6875,-0.01123047,-0.007324219,1.068359,-0.5205078,-0.8251953,-3.166016
2384,-1.875,1.5,0.25,-0.02294922,-0.01513672,1.048828,-0.5185547,-0.8232422,-3.17627
2385,-1.75,1.75,0.5625,-0.007324219,-0.003417969,1.021484,-0.5185547,-0.8232422,-3.17627
2389,-3.9375,0.75,0,-0.007324219,0,0.9868164,-0.5185547,-0.8232422,-3.17627
2390,-3.3125,0.25,-0.375,-0.01513672,-0.007324219,1.044922,-0.5185547,-0.8232422,-3.17627
2394,-2.4375,1.4375,0.6875,-0.02685547,-0.02294922,1.044922,-0.5205078,-0.8325195,-3.184082
2395,-2.125,1,0.75,-0.01513672,0.01123047,0.9868164,-0.5205078,-0.8325195,-3.184082
2399,-4.3125,-0.4375,-0.625,-0.007324219,0,1.060547,-0.5205078,-0.8325195,-3.184082
2400,-3.0625,0.25,-0.1875,-0.03466797,-0.007324219,1.037109,-0.5205078,-0.8251953,-3.184082
2404,-1.6875,2.1875,1.1875,-0.01513672,0.003417969,1.001953,-0.5205078,-0.8251953,-3.184082
2405,-3.125,1.1875,0.4375,-0.01123047,0.01123047,0.9907227,-0.5205078,-0.8251953,-3.184082
2409,-3.4375,0,-0.125,-0.01123047,0,1.037109,-0.5161133,-0.8325195,-3.179199
2410,-3.125,0.9375,0.125,-0.01513672,0,1.033203,-0.5161133,-0.8325195,-3.179199
2414,-1.75,1.4375,0.5625,0,0.007324219,0.9907227,-0.5161133,-0.8325195,-3.179199
2415,-3.1875,0.3125,0,-0.003417969,0.003417969,0.9868164,-0.5161133,-0.8325195,-3.179199
2419,-3.8125,0.0625,-0.4375,-0.01904297,-0.003417969,1.037109,-0.5229492,-0.8276367,-3.181641
2420,-2.3125,1.625,0.375,-0.01513672,0.003417969,1.044922,-0.5229492,-0.8276367,-3.181641
2424,-2.5,1.5625,0.75,-0.01904297,0.01123047,1.001953,-0.5229492,-0.8276367,-3.181641
2425,-3.75,0.3125,-0.4375,-0.02294922,0.01123047,1.001953,-0.5205078,-0.8325195,-3.17627
2429,-3.1875,0.625,0.125,-0.01513672,-0.007324219,1.052734,-0.5205078,-0.8325195,-3.17627
2430,-2.1875,0.875,0.3125,-0.02685547,0.003417969,1.017578,-0.5205078,-0.8325195,-3.17627
2434,-2.8125,0.625,0.375,-0.01123047,0,1.013672,-0.5253906,-0.8325195,-3.181641
2435,-3.5625,0.25,0,-0.03076172,0.007324219,1.021484,-0.5253906,-0.8325195,-3.181641
2439,-2.6875,1.1875,0,-0.01123047,0.007324219,1.052734,-0.5253906,-0.8325195,-3.181641
2440,-2.1875,1.5,0.6875,-0.03076172,-0.01904297,1.005859,-0.5253906,-0.8325195,-3.181641
2444,-3,0.5,0.0625,-0.003417969,0.007324219,1.005859,-0.5185547,-0.8232422,-3.181641
2445,-3.375,0.25,0,-0.03466797,0.007324219,1.029297,-0.5185547,-0.8232422,-3.181641
2449,-2.625,0.8125,0.125,-0.02685547,-0.02294922,1.037109,-0.5185547,-0.8232422,-3.181641
2450,-2.5,1.0625,0.5625,-0.01513672,0.01513672,1.021484,-0.5185547,-0.8325195,-3.179199
2454,-3.25,0.5,-0.0625,-0.02294922,0,1.021484,-0.5185547,-0.8325195,-3.179199
2455,-3.1875,0.75,0.125,-0.007324219,-0.03466797,1.044922,-0.5185547,-0.8325195,-3.179199
2459,-2.5,1.125,0.3125,-0.03466797,-0.02294922,1.017578,-0.5185547,-0.8325195,-3.17627
2460,-2.625,1.125,0.4375,-0.01123047,0,1.013672,-0.5185547,-0.8325195,-3.17627
2464,-3.4375,0.25,0.0625,-0.02294922,0,0.9907227,-0.5185547,-0.8325195,-3.17627
2465,-2.8125,0.4375,-0.0625,-0.01513672,0.003417969,1.044922,-0.5185547,-0.8325195,-3.17627
2469,-2.5625,1.0625,0.25,-0.03076172,-0.01513672,1.005859,-0.5161133,-0.8251953,-3.181641
2470,-2.625,0.875,0.125,-0.01513672,0.007324219,1.013672,-0.5161133,-0.8251953,-3.181641
2474,-3.25,0.6875,0,-0.01123047,-0.007324219,1.029297,-0.5161133,-0.8251953,-3.181641
2475,-2.8125,1.125,0.0625,0.003417969,-0.003417969,1.048828,-0.5185547,-0.8325195,-3.163574
2479,-2.5,1.0625,0.25,-0.02294922,-0.01904297,1.001953,-0.5185547,-0.8325195,-3.163574
2480,-2.875,0.4375,-0.125,-0.007324219,0.02294922,1.005859,-0.5185547,-0.8325195,-3.163574
2484,-3.25,0.375,0.0625,-0.01123047,-0.01513672,1.025391,-0.5185547,-0.8300781,-3.17627
2485,-2.5625,0.75,0,-0.02294922,-0.007324219,1.044922,-0.5185547,-0.8300781,-3.17627
2489,-2.8125,1.0625,0.25,-0.01513672,-0.01123047,1.029297,-0.5185547,-0.8300781,-3.17627
2490,-2.8125,0.8125,0,-0.01904297,0.01123047,1.013672,-0.5185547,-0.8300781,-3.17627
2494,-3.125,0.875,0,-0.02685547,-0.003417969,1.021484,-0.5185547,-0.8251953,-3.166016
2495,-3.0625,1,0.125,-0.01904297,0.003417969,1.017578,-0.5185547,-0.8251953,-3.166016
2499,-2.5625,0.5625,0.0625,-0.01904297,0.007324219,1.025391,-0.5185547,-0.8251953,-3.166016
2500,-3.25,0.3125,0,-0.01904297,0.003417969,0.9946289,-0.5161133,-0.8276367,-3.184082
2504,-2.875,0.6875,0,-0.01904297,-0.007324219,1.048828,-0.5161133,-0.8276367,-3.184082
2505,-3,1.3125,0.1875,-0.01513672,-0.01123047,1.025391,-0.5161133,-0.8276367,-3.184082
2509,-3,1.125,0.3125,-0.01513672,-0.003417969,1.009766,-0.5229492,-0.8300781,-3.173828
2510,-3.125,0.625,0.125,-0.01513672,0.007324219,1.033203,-0.5229492,-0.8300781,-3.173828
2514,-2.9375,0.75,0.125,-0.03076172,0,1.021484,-0.5229492,-0.8300781,-3.173828
2515,-2.6875,0.875,0.3125,-0.01513672,-0.01513672,1.013672,-0.5229492,-0.8300781,-3.173828
2519,-2.9375,0.625,0.125,-0.01513672,-0.007324219,1.025391,-0.5185547,-0.8208008,-3.17627
2520,-3,0.6875,0,-0.01513672,0.003417969,1.033203,-0.5185547,-0.8208008,-3.17627
2524,-2.875,0.9375,0.25,-0.007324219,-0.01123047,1.013672,-0.5185547,-0.8208008,-3.17627
2525,-2.8125,0.9375,0,-0.04248047,-0.007324219,1.025391,-0.5185547,-0.8232422,-3.173828
2529,-2.875,0.8125,0,-0.01513672,0,1.021484,-0.5185547,-0.8232422,-3.173828
2531,-3.125,0.625,0,-0.01513672,-0.01513672,1.017578,-0.5185547,-0.8232422,-3.173828
2535,-2.9375,0.5625,0.25,-0.007324219,-0.007324219,1.029297,-0.5205078,-0.8251953,-3.187012
2536,-2.9375,0.6875,0.1875,-0.01513672,-0.01904297,1.013672,-0.5205078,-0.8251953,-3.187012
2540,-3,0.75,0.125,-0.02294922,-0.01123047,1.037109,-0.5205078,-0.8251953,-3.187012
2541,-3.0625,0.6875,0,-0.03466797,-0.01513672,1.025391,-0.5205078,-0.8251953,-3.187012
2545,-2.5625,1.0625,0.125,-0.01904297,-0.01513672,1.005859,-0.5229492,-0.8276367,-3.17627
2546,-2.8125,0.6875,0.125,-0.03466797,-0.01513672,1.001953,-0.5229492,-0.8276367,-3.17627
2550,-2.8125,0.5625,0.3125,-0.02294922,0.007324219,1.017578,-0.5229492,-0.8276367,-3.17627
2551,-3,0.5,0,-0.01513672,-0.01904297,1.025391,-0.5297852,-0.8325195,-3.173828
2555,-2.8125,0.875,0.375,-0.007324219,0.003417969,1.017578,-0.5297852,-0.8325195,-3.173828
2556,-2.875,0.6875,0.375,0,-0.01123047,1.009766,-0.5297852,-0.8325195,-3.173828
2560,-3.125,0.9375,0,-0.03466797,-0.007324219,1.044922,-0.5161133,-0.8251953,-3.187012
2561,-2.875,0.875,0.125,-0.01513672,-0.007324219,1.029297,-0.5161133,-0.8251953,-3.187012
2565,-2.9375,0.875,0.4375,-0.01513672,-0.003417969,1.025391,-0.5161133,-0.8251953,-3.187012
2566,-2.875,0.5,0.0625,-0.01123047,0,1.021484,-0.5161133,-0.8251953,-3.187012
2570,-3,1.125,0,-0.03076172,-0.01123047,1.033203,-0.527832,-0.8251953,-3.187012
2571,-5.6875,-1,0.4375,0,0.09326172,1.056641,-0.527832,-0.8251953,-3.187012
2575,0.5,2.3125,-0.9375,-0.01904297,-0.09716797,0.9438477,-0.527832,-0.8251953,-3.187012
2576,-1.625,1.75,1.125,-0.01513672,-0.03076172,1.041016,-0.527832,-0.8300781,-3.191895
2580,-1.75,2.125,0.8125,-0.01904297,0.09716797,1.009766,-0.527832,-0.8300781,-3.191895
2581,-3.0625,-0.0625,-0.3125,-0.02294922,-0.01904297,1.001953,-0.527832,-0.8300781,-3.191895
2585,-5.5,0,0,-0.02685547,-0.04638672,1.037109,-0.534668,-0.8325195,-3.163574
2586,0.875,3.125,0.375,-0.03076172,0.03466797,1.009766,-0.534668,-0.8325195,-3.163574
2590,-3.6875,0.625,0.875,-0.01513672,0.02294922,1.041016,-0.534668,-0.8325195,-3.163574
2591,-3.8125,0.4375,-0.6875,-0.01123047,-0.02685547,1.005859,-0.534668,-0.8325195,-3.163574
2595,-2.125,0.75,0,-0.01123047,-0.01904297,1.056641,-0.5205078,-0.8300781,-3.179199
2596,-2.5625,1.5625,0.8125,-0.02685547,0.01513672,1.021484,-0.5205078,-0.8300781,-3.179199
2600,-2.6875,0.375,0,-0.01904297,-0.01123047,1.017578,-0.5205078,-0.8300781,-3.179199
2601,-4.5,0,-0.25,-0.01513672,-0.01123047,1.041016,-0.5205078,-0.8300781,-3.17627
2605,-1.875,1.625,0.4375,-0.007324219,-0.01513672,1.021484,-0.5205078,-0.8300781,-3.17627
2606,-2.625,0.8125,0.6875,-0.01123047,-0.007324219,1.021484,-0.5205078,-0.8300781,-3.17627
2610,-3.6875,0.375,-0.25,-0.01123047,0,1.025391,-0.5253906,-0.8276367,-3.179199
2611,-2.6875,0.5,-0.0625,0.003417969,-0.007324219,1.056641,-0.5253906,-0.8276367,-3.179199
2615,-2.8125,1.3125,0.5625,-0.04638672,-0.01123047,1.009766,-0.5253906,-0.8276367,-3.179199
2616,-2.25,1.3125,0.5,-0.01904297,0,0.9985352,-0.5253906,-0.8276367,-3.179199
2620,-4.25,0.1875,-0.3125,-0.01904297,0.003417969,1.048828,-0.5185547,-0.8300781,-3.17627
2621,-2.5625,0.9375,0.25,-0.02685547,-0.007324219,1.044922,-0.5185547,-0.8300781,-3.17627
2625,-1.8125,1.625,0.6875,-0.01904297,0.007324219,0.9985352,-0.5185547,-0.8300781,-3.17627
2626,-3.4375,0.375,0.0625,-0.02294922,-0.007324219,0.9829102,-0.527832,-0.8325195,-3.184082
2630,-3.3125,-0.125,-0.4375,-0.01123047,0.003417969,1.025391,-0.527832,-0.8325195,-3.184082
2631,-2.5,1.1875,0.5,-0.03076172,-0.02685547,1.048828,-0.527832,-0.8325195,-3.184082
2635,-2.1875,1.3125,0.625,-0.01904297,0.003417969,0.9868164,-0.5229492,-0.8300781,-3.17627
2636,-3.75,0,-0.125,-0.03076172,0,1.001953,-0.5229492,-0.8300781,-3.17627
2640,-3.3125,0.625,-0.0625,-0.01123047,-0.01513672,1.044922,-0.5229492,-0.8300781,-3.17627
2641,-1.9375,1.25,0.5,-0.03076172,0,0.9985352,-0.5229492,-0.8300781,-3.17627
2645,-2.875,0.8125,0.375,-0.01513672,-0.007324219,1.009766,-0.5112305,-0.8300781,-3.179199
2646,-3.4375,0.4375,-0.125,-0.02294922,-0.01123047,1.029297,-0.5112305,-0.8300781,-3.179199
2650,-3.0625,0.9375,0,-0.01123047,-0.01904297,1.025391,-0.5112305,-0.8300781,-3.179199
2651,-2.0625,1.5,0.6875,-0.02294922,0.01123047,1.005859,-0.5185547,-0.8276367,-3.17627
2655,-3.0625,0.5625,0.0625,-0.01904297,0.007324219,1.009766,-0.5185547,-0.8276367,-3.17627
2656,-3.375,0.4375,-0.125,-0.03466797,-0.007324219,1.048828,-0.5185547,-0.8276367,-3.17627
2660,-2.75,0.9375,0.1875,-0.09716797,-0.003417969,1.021484,-0.5205078,-0.815918,-3.179199
2661,-2.5,0.875,0.375,-0.02685547,-0.01123047,1.005859,-0.5205078,-0.815918,-3.179199
2665,-3.5625,0.1875,0,-0.007324219,0,1.009766,-0.5205078,-0.815918,-3.179199
2666,-3.125,0.75,0,-0.01904297,-0.003417969,1.021484,-0.5205078,-0.815918,-3.179199
2670,-2.4375,1.0625,0.25,-0.03076172,-0.01513672,1.041016,-0.5229492,-0.8344727,-3.179199
2671,-2.875,1.1875,0.125,-0.01513672,0,1.013672,-0.5229492,-0.8344727,-3.179199
2675,-3.1875,0.5,0,-0.01123047,-0.003417969,1.017578,-0.5229492,-0.8344727,-3.179199
2676,-3,0.5625,0,-0.03466797,-0.007324219,1.029297,-0.5229492,-0.8325195,-3.181641
2680,-2.4375,1.1875,0.5,-0.01123047,0.003417969,1.009766,-0.5229492,-0.8325195,-3.181641
2681,-2.9375,0.6875,0.0625,-0.01513672,-0.01123047,1.009766,-0.5229492,-0.8325195,-3.181641
2685,-3.375,0.625,0,-0.01513672,0.01123047,1.037109,-0.5253906,-0.8251953,-3.179199
2686,-2.8125,0.875,0.25,-0.01123047,-0.01123047,1.029297,-0.5253906,-0.8251953,-3.179199
2690,-2.5,1.1875,0.1875,-0.01513672,-0.007324219,1.017578,-0.5253906,-0.8251953,-3.179199
2693,-2.9375,0.5,0,-0.007324219,-0.007324219,1.017578,-0.5253906,-0.8251953,-3.179199
2697,-3.1875,0.75,0.0625,-0.01123047,0.003417969,1.033203,-0.5185547,-0.8325195,-3.17627
2698,-2.5625,0.6875,0.3125,-0.007324219,0.007324219,1.044922,-0.5185547,-0.8325195,-3.17627
2702,-2.5,1.0625,0.1875,-0.01513672,0.003417969,1.025391,-0.5185547,-0.8325195,-3.17627
2703,-3.1875,0.75,0,-0.01123047,0,1.017578,-0.5297852,-0.8300781,-3.184082
2707,-3.125,0.875,0.1875,-0.01904297,-0.003417969,1.017578,-0.5297852,-0.8300781,-3.184082
2708,-2.5,1.125,0.4375,-0.007324219,-0.007324219,1.029297,-0.5297852,-0.8300781,-3.184082
2712,-2.8125,0.8125,0,-0.01513672,-0.003417969,1.033203,-0.5136719,-0.8232422,-3.179199
2713,-2.9375,0.5625,0.25,-0.03076172,-0.01513672,1.009766,-0.5136719,-0.8232422,-3.179199
2717,-2.875,0.8125,0.125,-0.01904297,-0.007324219,1.044922,-0.5136719,-0.8232422,-3.179199
2718,-2.75,0.75,0.25,-0.007324219,-0.04638672,0.9985352,-0.5136719,-0.8232422,-3.179199
2722,-2.8125,0.8125,0.125,-0.007324219,0.007324219,1.021484,-0.5205078,-0.8276367,-3.17627
2723,-3.125,0.625,0.4375,-0.01513672,0.003417969,1.029297,-0.5205078,-0.8276367,-3.17627
2727,-2.8125,0.875,0,-0.02294922,-0.01123047,1.033203,-0.5205078,-0.8276367,-3.17627
2728,-3,0.8125,0.3125,-0.01513672,0,1.017578,-0.5205078,-0.8300781,-3.171387
2732,-2.875,0.5,0.1875,-0.03466797,0,1.025391,-0.5205078,-0.8300781,-3.171387
2733,-3.125,0.625,0.125,-0.03076172,-0.02294922,1.037109,-0.5205078,-0.8300781,-3.171387
2737,-2.8125,1.1875,0,-0.01513672,-0.003417969,1.005859,-0.5136719,-0.8325195,-3.173828
2738,-2.9375,0.9375,0,-0.01513672,0.007324219,1.005859,-0.5136719,-0.8325195,-3.173828
2742,-2.875,0.875,0.0625,0.003417969,0.01513672,1.029297,-0.5136719,-0.8325195,-3.173828
2743,-2.625,0.9375,0.125,-0.01513672,-0.01123047,1.021484,-0.5136719,-0.8325195,-3.173828
2747,-2.9375,0.8125,0.25,-0.007324219,0,1.025391,-0.5185547,-0.8325195,-3.184082
2748,-2.75,0.6875,0,0,0.01123047,1.005859,-0.5185547,-0.8325195,-3.184082
2752,-3.0625,0.625,0.125,-0.01123047,0.01904297,1.017578,-0.5185547,-0.8325195,-3.184082
2753,-2.875,0.8125,0.125,-0.02294922,-0.007324219,1.044922,-0.5185547,-0.8300781,-3.17627
2757,-2.5625,1.0625,0.25,-0.03857422,-0.003417969,1.044922,-0.5185547,-0.8300781,-3.17627
2758,-3,0.875,0.1875,-0.01513672,0,1.021484,-0.5185547,-0.8300781,-3.17627
2762,-2.8125,0.6875,0.25,-0.01513672,-0.01904297,1.033203,-0.5229492,-0.8232422,-3.179199
2763,-2.875,0.875,0.375,-0.01513672,-0.01123047,1.017578,-0.5229492,-0.8232422,-3.179199
2767,-2.875,0.8125,0.3125,-0.007324219,0,1.009766,-0.5229492,-0.8232422,-3.179199
2768,-3,0.75,0.1875,-0.02685547,-0.007324219,1.001953,-0.5229492,-0.8232422,-3.179199
2772,-2.8125,0.75,0.0625,-0.007324219,-0.01123047,1.029297,-0.5185547,-0.8208008,-3.179199
2773,-2.5625,0.875,0.25,0.003417969,-0.007324219,1.013672,-0.5185547,-0.8208008,-3.179199
2777,-2.9375,0.9375,0.125,-0.01904297,-0.01123047,1.044922,-0.5185547,-0.8208008,-3.179199
2778,-2.8125,0.9375,0,-0.01904297,-0.003417969,1.013672,-0.5185547,-0.8344727,-3.17627
2782,-3.0625,0.6875,0.125,-0.02294922,-0.007324219,1.025391,-0.5185547,-0.8344727,-3.17627
2783,-2.6875,0.8125,0.4375,-0.01513672,-0.003417969,1.025391,-0.5185547,-0.8344727,-3.17627
2787,-2.75,0.75,0,-0.01123047,-0.007324219,1.021484,-0.5229492,-0.8251953,-3.168457
2788,-2.625,1.4375,0.5,-0.03076172,-0.02294922,0.9985352,-0.5229492,-0.8251953,-3.168457
2792,-3.3125,-1.0625,-1.25,-0.02685547,-0.04638672,1.068359,-0.5229492,-0.8251953,-3.168457
2793,-3.5,1.125,0.9375,-0.02294922,-0.01123047,1.060547,-0.5229492,-0.8251953,-3.168457
2797,-0.625,1.5625,1.0625,-0.01123047,0.007324219,0.9790039,-0.527832,-0.8300781,-3.179199
2798,-5.5625,-1.1875,-0.6875,-0.03076172,-0.03857422,1.052734,-0.527832,-0.8300781,-3.179199
2802,-3.0625,0.6875,0,-0.03857422,0.003417969,1.017578,-0.527832,-0.8300781,-3.179199
2803,-0.375,2.875,0.5,-0.05419922,-0.02685547,1.009766,-0.5205078,-0.8276367,-3.191895
2807,-3.8125,0.8125,0.6875,-0.01513672,0.03466797,0.9711914,-0.5205078,-0.8276367,-3.191895
2808,-3.375,0.3125,-0.75,-0.01513672,0.007324219,1.013672,-0.5205078,-0.8276367,-3.191895
2812,-3.875,0.3125,-0.1875,-0.03466797,-0.03076172,1.052734,-0.527832,-0.8344727,-3.179199
2813,-1.625,2.125,1.125,-0.03466797,-0.01513672,1.013672,-0.527832,-0.8344727,-3.179199
2817,-3,0.5,0.3125,-0.007324219,0.01513672,1.001953,-0.527832,-0.8344727,-3.179199
2818,-4.5,-0.3125,-0.6875,-0.003417969,-0.003417969,0.9946289,-0.527832,-0.8344727,-3.179199
2822,-2.375,1.25,0.125,-0.02685547,-0.02294922,1.068359,-0.5161133,-0.8393555,-3.187012
2823,-2.1875,1.75,0.75,-0.02294922,0.003417969,0.9946289,-0.5161133,-0.8393555,-3.187012
2827,-2.75,0.25,-0.125,0,0.007324219,1.013672,-0.5161133,-0.8393555,-3.187012
2828,-4.1875,-0.375,-0.3125,-0.01123047,0.003417969,1.048828,-0.5205078,-0.8369141,-3.17627
2832,-2.3125,1.375,0.375,-0.01513672,-0.01123047,1.033203,-0.5205078,-0.8369141,-3.17627
2833,-2.125,1.375,0.5,-0.01123047,-0.007324219,1.001953,-0.5205078,-0.8369141,-3.17627
2837,-3.9375,0.4375,-0.25,0.003417969,-0.003417969,1.033203,-0.5185547,-0.8251953,-3.179199
2838,-2.875,0.75,-0.125,-0.01123047,-0.01513672,1.044922,-0.5185547,-0.8251953,-3.179199
2842,-2.3125,1.625,0.5625,-0.01513672,-0.003417969,1.021484,-0.5185547,-0.8251953,-3.179199
2843,-2.8125,1.0625,0.375,-0.01904297,0.007324219,0.9946289,-0.5185547,-0.8251953,-3.179199
2847,-3.75,-0.25,-0.6875,-0.003417969,0,1.044922,-0.5229492,-0.8325195,-3.181641
2848,-2.9375,0.8125,0.1875,-0.007324219,-0.003417969,1.056641,-0.5229492,-0.8325195,-3.181641
2852,-1.875,1.4375,0.5,-0.01904297,-0.01123047,1.001953,-0.5229492,-0.8325195,-3.181641
2854,-3.5625,0.5625,0,-0.01123047,0.007324219,0.9946289,-0.5297852,-0.8276367,-3.17627
2858,-3.375,0.0625,0,-0.01904297,-0.02294922,1.044922,-0.5297852,-0.8276367,-3.17627
2859,-2.5,1.3125,0.25,-0.02685547,0,1.044922,-0.5297852,-0.8276367,-3.17627
2863,-2.5,1.125,0.5625,-0.01123047,0.01123047,1.013672,-0.5205078,-0.8325195,-3.184082
2864,-3.4375,0.3125,-0.0625,-0.01123047,0.01513672,1.025391,-0.5205078,-0.8325195,-3.184082
2868,-3.5625,0.5,0,-0.01123047,-0.003417969,1.033203,-0.5205078,-0.8325195,-3.184082
2869,-2.0625,1.375,0.4375,-0.02685547,-0.01123047,1.009766,-0.5205078,-0.8325195,-3.184082
2873,-2.75,1.1875,0.3125,-0.007324219,0,1.009766,-0.5185547,-0.8300781,-3.179199
2874,-3.375,0.5625,-0.125,-0.02685547,-0.01513672,1.033203,-0.5185547,-0.8300781,-3.179199
2878,-2.9375,0.75,0.375,-0.01904297,-0.01123047,1.044922,-0.5185547,-0.8300781,-3.179199
2879,-2.5,1.25,0.25,-0.02294922,-0.003417969,1.029297,-0.5185547,-0.8325195,-3.189453
2883,-2.8125,0.5625,0.0625,-0.01904297,-0.01123047,1.017578,-0.5185547,-0.8325195,-3.189453
2884,-3.25,0.3125,-0.1875,-0.01513672,-0.01904297,1.021484,-0.5185547,-0.8325195,-3.189453
2888,-2.75,0.875,0.25,-0.01513672,0.003417969,1.025391,-0.5185547,-0.8208008,-3.187012
2889,-2.4375,1.3125,0.3125,-0.007324219,-0.007324219,1.029297,-0.5185547,-0.8208008,-3.187012
2893,-3.0625,0.5625,0,-0.01904297,0.01123047,1.001953,-0.5185547,-0.8208008,-3.187012
2894,-3.1875,0.625,-0.125,-0.01513672,-0.003417969,1.048828,-0.5185547,-0.8208008,-3.187012
2898,-2.5625,0.9375,0.1875,-0.01123047,-0.01513672,1.017578,-0.527832,-0.8208008,-3.173828
2899,-2.5625,0.875,0.1875,-0.03076172,0,0.9946289,-0.527832,-0.8208008,-3.173828
2903,-3.125,0.75,0,-0.01904297,0.003417969,1.025391,-0.527832,-0.8208008,-3.173828
2904,-3,0.75,0.125,-0.01513672,-0.02294922,1.048828,-0.5229492,-0.8251953,-3.171387
2908,-2.5,1.3125,0.4375,-0.01513672,0,1.013672,-0.5229492,-0.8251953,-3.171387
2909,-2.6875,0.8125,0.125,-0.01123047,0,1.005859,-0.5229492,-0.8251953,-3.171387
2913,-3.3125,0.3125,0,-0.01513672,0,1.025391,-0.5229492,-0.8325195,-3.171387
2914,-2.9375,0.6875,0.25,-0.01123047,-0.01123047,1.029297,-0.5229492,-0.8325195,-3.171387
2918,-2.5625,1.0625,0.0625,-0.01904297,-0.007324219,1.021484,-0.5229492,-0.8325195,-3.171387
2919,-3.0625,0.9375,0,-0.02294922,-0.01123047,1.009766,-0.5229492,-0.8325195,-3.171387
2923,-3.125,0.4375,0,-0.01513672,0,1.025391,-0.5112305,-0.8232422,-3.17627
2924,-2.875,1.125,0.125,-0.01904297,-0.01513672,1.044922,-0.5112305,-0.8232422,-3.17627
2928,-2.8125,1.1875,0.3125,-0.01513672,0.01123047,1.033203,-0.5112305,-0.8232422,-3.17627
2929,-2.8125,0.625,0,-0.01513672,0,1.017578,-0.5229492,-0.8369141,-3.181641
2933,-3,0.5625,0,-0.02294922,0,1.017578,-0.5229492,-0.8369141,-3.181641
2934,-2.875,0.8125,0,-0.01513672,0.003417969,1.001953,-0.5229492,-0.8369141,-3.181641
2938,-2.8125,1.125,0.1875,-0.02294922,0.003417969,1.009766,-0.5185547,-0.8251953,-3.17627
2939,-2.9375,0.75,0.1875,-0.003417969,0.003417969,1.001953,-0.5185547,-0.8251953,-3.17627
2943,-2.875,0.6875,0,-0.007324219,-0.003417969,1.021484,-0.5185547,-0.8251953,-3.17627
2944,-2.6875,0.8125,0.3125,-0.007324219,0.01123047,1.037109,-0.5185547,-0.8251953,-3.17627
2948,-2.875,0.5625,0,-0.007324219,0.003417969,1.017578,-0.5229492,-0.8300781,-3.179199
2949,-3.3125,0.625,0.1875,-0.007324219,-0.01123047,1.025391,-0.5229492,-0.8300781,-3.179199
2953,-2.6875,0.875,0.125,-0.01123047,0,1.025391,-0.5229492,-0.8300781,-3.179199
2954,-2.6875,0.9375,0.3125,-0.01513672,-0.003417969,1.021484,-0.5112305,-0.8251953,-3.173828
2958,-3.0625,0.8125,0.0625,-0.02294922,0,1.009766,-0.5112305,-0.8251953,-3.173828
2959,-2.75,1.0625,-0.0625,-0.02294922,-0.007324219,1.025391,-0.5112305,-0.8251953,-3.173828
2963,-3,0.75,0.125,-0.03857422,-0.003417969,1.017578,-0.5205078,-0.8232422,-3.184082
2964,-2.8125,0.75,0.125,-0.01513672,0.003417969,1.025391,-0.5205078,-0.8232422,-3.184082
2968,-2.9375,0.9375,0.0625,-0.02294922,-0.003417969,1.013672,-0.5205078,-0.8232422,-3.184082
2969,-3,0.875,0.125,-0.01123047,-0.007324219,1.009766,-0.5205078,-0.8232422,-3.184082
2973,-3.125,0.6875,0.125,-0.01513672,0.003417969,1.013672,-0.5161133,-0.8276367,-3.189453
2974,-2.8125,1,0,-0.01513672,-0.003417969,1.021484,-0.5161133,-0.8276367,-3.189453
2978,-2.875,0.9375,0.1875,-0.02685547,-0.01123047,1.017578,-0.5161133,-0.8276367,-3.189453
2979,-3,0.4375,0,-0.01123047,-0.007324219,1.017578,-0.5205078,-0.8251953,-3.179199
2983,-2.875,0.5625,0.0625,-0.007324219,0.007324219,1.044922,-0.5205078,-0.8251953,-3.179199
2984,-2.75,0.6875,0,-0.01904297,-0.003417969,1.017578,-0.5205078,-0.8251953,-3.179199
2988,-2.9375,0.8125,0.0625,-0.01513672,0.01123047,1.021484,-0.5205078,-0.8251953,-3.173828
2989,-2.9375,0.875,0.25,-0.01904297,-0.007324219,1.001953,-0.5205078,-0.8251953,-3.173828
2993,-2.875,0.8125,0.0625,-0.03466797,-0.003417969,1.025391,-0.5205078,-0.8251953,-3.173828
2994,-2.75,0.6875,0,-0.01513672,-0.007324219,1.044922,-0.5205078,-0.8251953,-3.173828
2998,-2.8125,0.75,0,-0.01123047,0.003417969,1.029297,-0.5205078,-0.8232422,-3.189453
2999,-2.9375,0.5625,0,0.003417969,0.01513672,1.021484,-0.5205078,-0.8232422,-3.189453
3003,-2.8125,0.9375,0,-0.01513672,-0.01513672,1.037109,-0.5205078,-0.8232422,-3.189453
3004,-2.75,0.6875,0.1875,-0.01123047,0.007324219,1.005859,-0.5253906,-0.8325195,-3.191895
3008,-2.9375,1.25,0,-0.04248047,-0.01123047,1.037109,-0.5253906,-0.8325195,-3.191895
3009,-6.5,-1.75,0.5625,-0.01123047,0.05029297,1.091797,-0.5253906,-0.8325195,-3.191895
3013,1.75,3.375,-1.1875,0.01123047,-0.1323242,0.9321289,-0.5136719,-0.8251953,-3.173828
3015,-0.125,2.625,1.125,-0.007324219,0.07373047,1.103516,-0.5136719,-0.8251953,-3.173828
3019,-1.625,2.5,0.9375,-0.07763672,0.1049805,1.060547,-0.5136719,-0.8251953,-3.173828
3020,-1.9375,0.375,-0.5625,0.003417969,0.003417969,1.005859,-0.5136719,-0.8251953,-3.173828
3024,-7,-0.625,0,-0.03857422,-0.02294922,1.013672,-0.5161133,-0.8369141,-3.173828
3025,1,3.25,0,-0.02685547,0.08935547,1.048828,-0.5161133,-0.8369141,-3.173828
3029,-3.0625,0.6875,1,-0.01123047,0.01513672,1.068359,-0.5161133,-0.8369141,-3.173828
3030,-3.6875,0.125,-0.375,-0.02685547,-0.007324219,0.9985352,-0.5112305,-0.8208008,-3.173828
3034,-2.25,0.375,0,-0.007324219,-0.01904297,1.056641,-0.5112305,-0.8208008,-3.173828
3035,-2.875,1.5625,0.875,-0.01513672,-0.003417969,1.001953,-0.5112305,-0.8208008,-3.173828
3039,-2.25,0.6875,-0.1875,-0.007324219,0.01904297,1.009766,-0.5136719,-0.8208008,-3.179199
3040,-4.4375,0,-0.125,-0.01904297,-0.02294922,1.052734,-0.5136719,-0.8208008,-3.179199
3044,-1.8125,2.375,0.625,0,-0.01904297,1.029297,-0.5136719,-0.8208008,-3.179199
3045,-2.6875,1.25,0.75,-0.02294922,0.01123047,1.013672,-0.5136719,-0.8208008,-3.179199
3049,-3.75,0.0625,-0.5625,0,-0.003417969,1.025391,-0.5229492,-0.8232422,-3.179199
3050,-2.5,0.4375,-0.125,-0.01123047,-0.01123047,1.064453,-0.5229492,-0.8232422,-3.179199
3054,-2.8125,1,1.0625,0,-0.01123047,1.013672,-0.5229492,-0.8232422,-3.179199
3055,-2.125,1,0.3125,-0.007324219,0.01904297,0.9711914,-0.527832,-0.8344727,-3.17627
3059,-4.25,0,-0.625,-0.02294922,0.003417969,1.056641,-0.527832,-0.8344727,-3.17627
3060,-3,1,0,-0.02294922,-0.02294922,1.044922,-0.527832,-0.8344727,-3.17627
3064,-1.4375,1.9375,1.125,-0.01123047,0,1.009766,-0.5205078,-0.8325195,-3.191895
3065,-3.6875,0.25,-0.125,-0.003417969,0.007324219,0.9790039,-0.5205078,-0.8325195,-3.191895
3069,-3.6875,-0.1875,-0.6875,-0.01123047,0.01123047,1.048828,-0.5205078,-0.8325195,-3.191895
3070,-2.625,1.5,0.4375,-0.02294922,-0.01904297,1.044922,-0.5205078,-0.8325195,-3.191895
3074,-1.9375,1.8125,0.75,-0.01904297,-0.003417969,0.9829102,-0.5205078,-0.8251953,-3.17627
3075,-3.8125,0,-0.5,-0.007324219,-0.007324219,1.025391,-0.5205078,-0.8251953,-3.17627
3079,-3.3125,0.8125,-0.0625,-0.003417969,0.003417969,1.033203,-0.5205078,-0.8251953,-3.17627
3080,-1.625,1.4375,0.5,-0.02294922,0,1.009766,-0.5205078,-0.8369141,-3.173828
3084,-2.9375,0.875,0.4375,-0.007324219,0.007324219,0.9946289,-0.5205078,-0.8369141,-3.173828
3085,-3.6875,0.0625,-0.1875,-0.01123047,0.007324219,1.037109,-0.5205078,-0.8369141,-3.173828
3089,-3.3125,0.5,0,-0.007324219,-0.003417969,1.044922,-0.5253906,-0.8325195,-3.187012
3090,-2,1.5625,0.75,-0.03466797,-0.01513672,1.021484,-0.5253906,-0.8325195,-3.187012
3094,-3.0625,0.9375,0.1875,-0.01513672,0,0.9946289,-0.5253906,-0.8325195,-3.187012
3095,-3.5,0.125,-0.3125,-0.007324219,-0.007324219,1.025391,-0.5253906,-0.8325195,-3.187012
3099,-2.8125,1,0.3125,-0.01123047,-0.02294922,1.033203,-0.5092773,-0.8300781,-3.184082
3100,-2.125,1.1875,0.3125,-0.01513672,0.003417969,0.9985352,-0.5092773,-0.8300781,-3.184082
3104,-3.25,0.25,0,-0.02685547,-0.007324219,1.001953,-0.5092773,-0.8300781,-3.184082
3105,-3.4375,0.5625,0.0625,-0.003417969,-0.01513672,1.044922,-0.5253906,-0.8300781,-3.179199
3109,-2.5,1.4375,0.25,-0.01513672,-0.02685547,1.044922,-0.5253906,-0.8300781,-3.179199
3110,-2.6875,1.25,0.5,-0.007324219,-0.01123047,1.029297,-0.5253906,-0.8300781,-3.179199
3114,-3.4375,0.6875,-0.0625,-0.03076172,0.01904297,1.048828,-0.5205078,-0.8344727,-3.191895
3115,-3.0625,0.5,0,-0.01904297,-0.01513672,1.044922,-0.5205078,-0.8344727,-3.191895
3119,-2.3125,1.0625,0.4375,-0.003417969,0.003417969,1.017578,-0.5205078,-0.8344727,-3.191895
3120,-2.875,0.625,0.125,0,-0.007324219,1.001953,-0.5205078,-0.8344727,-3.191895
3124,-3.5625,0.3125,-0.125,-0.01513672,-0.01123047,1.013672,-0.5205078,-0.8300781,-3.17627
3125,-2.875,0.875,0,-0.003417969,-0.007324219,1.025391,-0.5205078,-0.8300781,-3.17627
3129,-2.25,1.3125,0.25,-0.007324219,-0.01123047,0.9985352,-0.5205078,-0.8300781,-3.17627
3130,-3,0.75,0,0.007324219,-0.003417969,1.013672,-0.5205078,-0.8276367,-3.184082
3134,-3.375,0.3125,-0.0625,-0.01513672,-0.01513672,1.037109,-0.5205078,-0.8276367,-3.184082
3135,-2.625,0.875,0.1875,-0.01513672,-0.007324219,1.048828,-0.5205078,-0.8276367,-3.184082
3139,-2.375,1.0625,0.5,-0.01123047,-0.01513672,1.005859,-0.5112305,-0.8300781,-3.181641
3140,-3,0.5625,0,0,0.003417969,1.013672,-0.5112305,-0.8300781,-3.181641
3144,-3.1875,0.75,0,-0.01513672,0.01123047,1.048828,-0.5112305,-0.8300781,-3.181641
3145,-2.625,1.25,0.25,-0.03857422,0,1.009766,-0.5112305,-0.8300781,-3.181641
3149,-2.75,1.0625,0.125,-0.01123047,-0.003417969,1.001953,-0.5185547,-0.8251953,-3.171387
3150,-3.0625,0.375,0,-0.01513672,0.01513672,1.017578,-0.5185547,-0.8251953,-3.171387
3154,-3.125,0.5,0.0625,-0.02294922,-0.007324219,1.025391,-0.5185547,-0.8251953,-3.171387
3155,-2.5,0.875,0.0625,-0.03466797,-0.01513672,1.044922,-0.5205078,-0.8208008,-3.17627
3159,-2.5625,0.8125,0.125,-0.02294922,-0.003417969,1.029297,-0.5205078,-0.8208008,-3.17627
3160,-3.125,0.6875,0,-0.01904297,0.003417969,1.017578,-0.5205078,-0.8208008,-3.17627
3164,-2.875,0.75,0,-0.007324219,0,1.033203,-0.527832,-0.8208008,-3.17627
3165,-2.6875,0.75,0.3125,-0.02294922,-0.02294922,1.017578,-0.527832,-0.8208008,-3.17627
3169,-2.8125,0.4375,0,-0.01123047,-0.01123047,1.033203,-0.527832,-0.8208008,-3.17627
3170,-3.1875,0.5,0,-0.03466797,-0.003417969,1.017578,-0.527832,-0.8208008,-3.17627
3174,-2.875,0.9375,0.0625,-0.03466797,-0.003417969,1.017578,-0.5161133,-0.8208008,-3.17627
3176,-2.6875,1.1875,0.1875,-0.01904297,0.01123047,1.029297,-0.5161133,-0.8208008,-3.17627
3180,-3.0625,1,0,-0.01904297,-0.01123047,0.9985352,-0.5161133,-0.8208008,-3.17627
3181,-2.875,0.8125,0.125,-0.03466797,0.01123047,1.044922,-0.5161133,-0.8369141,-3.181641
3185,-3,0.5625,0.1875,-0.01904297,-0.003417969,1.017578,-0.5161133,-0.8369141,-3.181641
3186,-2.625,0.6875,0,-0.02294922,-0.01123047,1.013672,-0.5161133,-0.8369141,-3.181641
3190,-3.0625,0.5,0.0625,-0.02685547,-0.01513672,1.009766,-0.5253906,-0.8276367,-3.173828
3191,-3.0625,0.8125,0,-0.03466797,-0.01123047,1.017578,-0.5253906,-0.8276367,-3.173828
3195,-2.625,1,0.0625,-0.01513672,-0.01123047,1.029297,-0.5253906,-0.8276367,-3.173828
3196,-2.6875,1,0.1875,-0.02294922,0.01513672,1.025391,-0.5253906,-0.8276367,-3.173828
3200,-3.125,0.625,0,-0.01123047,0.007324219,1.005859,-0.527832,-0.8300781,-3.17627
3201,-2.875,0.9375,0.0625,-0.01513672,0.007324219,1.029297,-0.527832,-0.8300781,-3.17627
3205,-2.75,0.625,0.1875,-0.02294922,-0.003417969,1.041016,-0.527832,-0.8300781,-3.17627
3206,-2.9375,0.5625,0.125,-0.03076172,-0.01513672,1.017578,-0.5161133,-0.8251953,-3.181641
3210,-2.875,0.8125,0.25,-0.007324219,-0.007324219,1.021484,-0.5161133,-0.8251953,-3.181641
3211,-3,0.875,0.0625,-0.03076172,-0.01123047,1.017578,-0.5161133,-0.8251953,-3.181641
3215,-2.6875,0.8125,0.375,-0.03076172,-0.02294922,1.033203,-0.5185547,-0.8325195,-3.181641
3216,-3.125,0.875,0,-0.01123047,-0.02294922,1.005859,-0.5185547,-0.8325195,-3.181641
3220,-3,0.5,0,-0.01904297,-0.01513672,1.025391,-0.5185547,-0.8325195,-3.181641
3221,-2.875,0.75,0.25,-0.02685547,0.01513672,1.013672,-0.5185547,-0.8325195,-3.181641
3225,-2.75,0.875,0,-0.02294922,-0.01123047,1.013672,-0.5229492,-0.8325195,-3.179199
3226,-3.0625,0.8125,0,-0.01123047,-0.007324219,1.025391,-0.5229492,-0.8325195,-3.179199
3230,-2.9375,0.875,0.0625,-0.007324219,0.003417969,1.025391,-0.5229492,-0.8325195,-3.179199
3231,-2.8125,1.0625,0.1875,-0.003417969,0.01123047,1.017578,-0.5297852,-0.8369141,-3.173828
3235,-3,0.9375,0.1875,-0.03076172,0.007324219,1.029297,-0.5297852,-0.8369141,-3.173828
3236,-3.0625,0.6875,0,-0.01904297,-0.007324219,1.009766,-0.5297852,-0.8369141,-3.173828
3240,-2.75,0.75,0,-0.02685547,-0.01904297,1.052734,-0.5185547,-0.8251953,-3.17627
3241,-2.75,0.75,0.1875,-0.01123047,-0.01513672,0.9907227,-0.5185547,-0.8251953,-3.17627
3245,-3,0.75,0.125,-0.003417969,-0.007324219,1.013672,-0.5185547,-0.8251953,-3.17627
3246,-2.875,0.875,0,-0.02685547,-0.003417969,1.021484,-0.5185547,-0.8251953,-3.17627
3250,-2.625,0.875,0,-0.03466797,-0.01904297,1.025391,-0.5253906,-0.8251953,-3.179199
3251,-2.6875,0.75,0.25,-0.007324219,-0.01513672,1.013672,-0.5253906,-0.8251953,-3.179199
3255,-2.9375,0.5625,0,0,-0.01123047,1.021484,-0.5253906,-0.8251953,-3.179199
3256,-2.8125,0.625,0,-0.007324219,-0.003417969,1.044922,-0.5185547,-0.8251953,-3.194336
3260,-2.625,0.75,0.375,-0.01513672,0.01123047,0.9985352,-0.5185547,-0.8251953,-3.194336
3261,-2.6875,1.0625,0.375,-0.02685547,-0.01513672,1.021484,-0.5185547,-0.8251953,-3.194336
3265,-2.75,0.6875,-0.0625,0,0.003417969,1.029297,-0.5161133,-0.8276367,-3.17627
3266,-2.9375,0.9375,0.1875,-0.01513672,0.01123047,1.033203,-0.5161133,-0.8276367,-3.17627
3270,-2.75,0.625,0.125,-0.03076172,-0.003417969,1.029297,-0.5161133,-0.8276367,-3.17627
3271,-2.6875,0.8125,0.0625,-0.01904297,-0.007324219,1.017578,-0.5161133,-0.8276367,-3.17627
3275,-2.9375,0.5625,0.0625,0.003417969,-0.01123047,1.009766,-0.5229492,-0.8325195,-3.184082
3276,-2.8125,0.9375,0,-0.007324219,-0.007324219,1.029297,-0.5229492,-0.8325195,-3.184082
3280,-2.6875,1,0.1875,-0.02294922,-0.01513672,1.025391,-0.5229492,-0.8325195,-3.184082
3281,-2.875,0.9375,0.0625,-0.03466797,0.003417969,1.025391,-0.5297852,-0.8344727,-3.173828
3285,-3,0.5625,0,-0.01513672,-0.01904297,1.048828,-0.5297852,-0.8344727,-3.173828
3286,-2.8125,0.9375,0.25,-0.01904297,-0.02294922,1.033203,-0.5297852,-0.8344727,-3.173828
3290,-3,0.8125,0.0625,-0.01513672,-0.01904297,1.017578,-0.5161133,-0.8232422,-3.181641
3291,-2.8125,0.8125,0,-0.007324219,0.01123047,1.029297,-0.5161133,-0.8232422,-3.181641
3295,-2.8125,0.75,0.0625,-0.01513672,-0.007324219,1.017578,-0.5161133,-0.8232422,-3.181641
3296,-2.75,0.6875,0.25,-0.02294922,0,1.025391,-0.5161133,-0.8232422,-3.181641
3300,-2.8125,0.8125,0,-0.03466797,-0.003417969,1.052734,-0.5205078,-0.8344727,-3.184082
3301,-3,0.8125,0.1875,-0.01904297,-0.007324219,1.009766,-0.5205078,-0.8344727,-3.184082
3305,-2.6875,0.5625,0.125,-0.03466797,0,1.013672,-0.5205078,-0.8344727,-3.184082
3306,-2.9375,0.6875,0.0625,-0.01123047,0.01123047,1.025391,-0.5229492,-0.8208008,-3.173828
3310,-2.875,0.9375,0.125,-0.02294922,-0.01513672,1.029297,-0.5229492,-0.8208008,-3.173828
3311,-2.8125,0.6875,0.125,-0.01513672,0.01123047,1.021484,-0.5229492,-0.8208008,-3.173828
3315,-3,0.875,0.0625,-0.02685547,0,1.017578,-0.5297852,-0.8251953,-3.17627
3316,-2.6875,1,0,-0.01513672,0.003417969,1.037109,-0.5297852,-0.8251953,-3.17627
3320,-2.9375,0.625,0,-0.01513672,-0.01123047,1.001953,-0.5297852,-0.8251953,-3.17627
3321,-2.875,0.75,0.0625,-0.03466797,-0.003417969,1.001953,-0.5297852,-0.8251953,-3.17627
3325,-2.875,0.75,0.125,0,0,1.017578,-0.5185547,-0.8325195,-3.173828
3326,-2.8125,0.75,0.0625,-0.01513672,-0.01904297,1.009766,-0.5185547,-0.8325195,-3.173828
3330,-3,0.6875,0,-0.007324219,-0.007324219,1.029297,-0.5185547,-0.8325195,-3.173828
3331,-2.8125,0.6875,0,-0.02685547,0.007324219,1.009766,-0.5297852,-0.8276367,-3.184082
3335,-2.75,0.875,0.125,-0.007324219,0.01513672,1.017578,-0.5297852,-0.8276367,-3.184082
3338,-3,0.625,0.1875,-0.01904297,0.003417969,1.005859,-0.5297852,-0.8276367,-3.184082
3342,-2.8125,0.6875,0.1875,-0.01904297,-0.007324219,1.017578,-0.5297852,-0.8325195,-3.17627
3343,-2.875,0.875,0.25,-0.01123047,0.01123047,1.021484,-0.5297852,-0.8325195,-3.17627
3347,-3,0.8125,0.125,-0.01513672,-0.01123047,1.021484,-0.5297852,-0.8325195,-3.17627
3348,-2.875,0.75,0.3125,-0.01123047,-0.02294922,1.029297,-0.5297852,-0.8325195,-3.17627
3352,-3.125,0.8125,0.375,-0.02685547,0,1.017578,-0.5161133,-0.8251953,-3.181641
3353,-3.0625,0.875,0.125,-0.01904297,-0.01123047,1.029297,-0.5161133,-0.8251953,-3.181641
3357,-2.6875,0.6875,0.25,-0.02685547,-0.01513672,1.009766,-0.5161133,-0.8251953,-3.181641
3358,-2.9375,0.6875,0,-0.01904297,-0.007324219,1.048828,-0.5092773,-0.8276367,-3.168457
3362,-3.125,0.75,0.1875,0,-0.007324219,1.021484,-0.5092773,-0.8276367,-3.168457
3363,-2.9375,0.875,0.1875,-0.007324219,-0.01904297,1.037109,-0.5092773,-0.8276367,-3.168457
3367,-2.625,0.75,0,-0.02294922,-0.003417969,1.021484,-0.5136719,-0.8232422,-3.163574
3368,-2.9375,0.9375,0.25,0,0.003417969,1.029297,-0.5136719,-0.8232422,-3.163574
3372,-3.1875,0.6875,0,-0.02294922,-0.01123047,1.017578,-0.5136719,-0.8232422,-3.163574
3373,-2.6875,0.9375,0.0625,-0.02294922,-0.003417969,1.013672,-0.5136719,-0.8232422,-3.163574
3377,-2.6875,0.75,0.25,-0.02685547,0.007324219,1.033203,-0.527832,-0.8276367,-3.171387
3378,-3,0.75,0.0625,-0.01123047,0,1.021484,-0.527832,-0.8276367,-3.171387
3382,-2.9375,0.75,0,-0.02294922,-0.01123047,1.013672,-0.527832,-0.8276367,-3.171387
3383,-2.75,0.875,0.5,-0.03466797,-0.007324219,1.013672,-0.5205078,-0.8251953,-3.187012
3387,-2.6875,0.875,0,-0.01513672,0,1.029297,-0.5205078,-0.8251953,-3.187012
3388,-3.0625,0.75,0.25,-0.01904297,0.003417969,1.013672,-0.5205078,-0.8251953,-3.187012
3392,-2.75,0.8125,0.125,-0.01123047,0.003417969,1.025391,-0.5253906,-0.8344727,-3.17627
3393,-2.75,0.875,0.1875,-0.02685547,0.003417969,1.025391,-0.5253906,-0.8344727,-3.17627
3397,-2.875,0.8125,0.3125,-0.03466797,-0.007324219,1.017578,-0.5253906,-0.8344727,-3.17627
3398,-3.0625,0.75,0,-0.01513672,0.003417969,1.013672,-0.5253906,-0.8344727,-3.17627
3402,-2.6875,1.0625,0.25,-0.02294922,0.01123047,1.009766,-0.5229492,-0.8325195,-3.187012
3403,-2.875,0.875,0.1875,-0.03076172,-0.003417969,1.009766,-0.5229492,-0.8325195,-3.187012
3407,-3.0625,0.5625,0.0625,-0.007324219,0,1.017578,-0.5229492,-0.8325195,-3.187012
3408,-3,0.625,0.125,-0.01123047,-0.003417969,1.021484,-0.5185547,-0.8251953,-3.17627
3412,-2.75,0.9375,0.1875,-0.01513672,-0.007324219,1.037109,-0.5185547,-0.8251953,-3.17627
3413,-2.8125,0.875,0.1875,-0.02685547,-0.02294922,1.029297,-0.5185547,-0.8251953,-3.17627
3417,-3.25,0.875,0.375,-0.007324219,0.01513672,1.052734,-0.5229492,-0.8325195,-3.17627
3418,-3.0625,0.875,0.125,-0.02294922,0,1.017578,-0.5229492,-0.8325195,-3.17627
3422,-2.875,0.75,0.125,-0.01513672,-0.01513672,1.029297,-0.5229492,-0.8325195,-3.17627
3423,-2.9375,0.75,0.1875,-0.007324219,0.003417969,1.005859,-0.5229492,-0.8325195,-3.17627
3427,-2.625,0.8125,0.1875,-0.01513672,0,1.017578,-0.5297852,-0.8325195,-3.173828
3428,-2.875,0.625,0,-0.007324219,0,1.021484,-0.5297852,-0.8325195,-3.173828
3432,-2.9375,0.875,0.25,-0.01904297,-0.01123047,1.017578,-0.5297852,-0.8325195,-3.173828
3433,-3.0625,0.75,-0.0625,-0.01904297,-0.003417969,1.029297,-0.5229492,-0.8300781,-3.179199
3437,-3,0.625,0.125,-0.01904297,0.003417969,1.025391,-0.5229492,-0.8300781,-3.179199
3438,-2.875,0.6875,0.25,-0.007324219,-0.01513672,1.009766,-0.5229492,-0.8300781,-3.179199
3442,-2.8125,0.75,0.3125,-0.007324219,-0.007324219,1.033203,-0.5297852,-0.8251953,-3.184082
3443,-2.9375,0.75,0.25,-0.01513672,-0.01513672,1.009766,-0.5297852,-0.8251953,-3.184082
3447,-2.875,0.8125,0.125,0,-0.007324219,1.021484,-0.5297852,-0.8251953,-3.184082
3448,-2.6875,0.9375,0.1875,-0.02685547,0.01904297,1.033203,-0.5297852,-0.8251953,-3.184082
3452,-3.125,0.9375,0.125,-0.003417969,0.01513672,1.025391,-0.5253906,-0.8344727,-3.179199
3453,-3.0625,0.8125,0,-0.02294922,0.01904297,1.029297,-0.5253906,-0.8344727,-3.179199
3457,-2.8125,0.875,0,-0.02685547,-0.02294922,1.044922,-0.5253906,-0.8344727,-3.179199
3458,-2.9375,0.8125,0.0625,-0.01904297,-0.01904297,1.013672,-0.5161133,-0.8300781,-3.17627
3462,-2.9375,0.8125,0.375,-0.03076172,-0.007324219,1.033203,-0.5161133,-0.8300781,-3.17627
3463,-3.0625,0.75,0.125,-0.01513672,-0.003417969,1.013672,-0.5161133,-0.8300781,-3.17627
3467,-3.0625,0.75,0.0625,-0.01904297,-0.007324219,1.029297,-0.5253906,-0.8183594,-3.184082
3468,-2.8125,0.75,0,-0.003417969,-0.003417969,1.029297,-0.5253906,-0.8183594,-3.184082
3472,-2.875,0.8125,0,-0.02685547,-0.003417969,1.037109,-0.5253906,-0.8183594,-3.184082
3473,-2.9375,0.625,0,-0.01513672,0,1.017578,-0.5253906,-0.8183594,-3.184082
3477,-2.9375,0.75,0.125,0,-0.007324219,1.017578,-0.5205078,-0.8232422,-3.17627
3478,-2.75,0.625,0.3125,-0.02685547,-0.003417969,1.044922,-0.5205078,-0.8232422,-3.17627
3482,-3,0.5625,0.0625,-0.03466797,-0.01513672,1.025391,-0.5205078,-0.8232422,-3.17627
3483,-2.875,0.75,0,-0.01513672,0.007324219,1.021484,-0.5253906,-0.8325195,-3.17627
3487,-2.875,1,0.3125,-0.03857422,0.003417969,1.025391,-0.5253906,-0.8325195,-3.17627
3488,-2.8125,0.9375,0.1875,0.003417969,0,1.021484,-0.5253906,-0.8325195,-3.17627
3492,-2.8125,0.6875,0,-0.04248047,-0.007324219,1.009766,-0.5297852,-0.8251953,-3.17627
3493,-3,0.8125,0.125,-0.03466797,-0.007324219,1.029297,-0.5297852,-0.8251953,-3.17627
3497,-2.875,0.9375,0.0625,-0.01123047,-0.003417969,1.017578,-0.5297852,-0.8251953,-3.17627
3499,-2.6875,0.75,0.125,-0.01513672,0.007324219,1.001953,-0.5297852,-0.8251953,-3.17627
3503,-3,0.4375,0.0625,-0.02294922,0.003417969,1.017578,-0.5205078,-0.8300781,-3.181641
3504,-2.9375,0.8125,0.125,-0.01513672,-0.003417969,1.021484,-0.5205078,-0.8300781,-3.181641
3508,-2.8125,0.75,0.1875,-0.01904297,0.007324219,1.009766,-0.5205078,-0.8300781,-3.181641
3509,-2.875,0.6875,0.25,-0.003417969,0.003417969,1.017578,-0.5185547,-0.8251953,-3.17627
3513,-3,0.625,0.125,-0.007324219,-0.003417969,1.029297,-0.5185547,-0.8251953,-3.17627
3514,-3,1,0,-0.01904297,-0.01904297,1.041016,-0.5185547,-0.8251953,-3.17627
3518,-2.8125,0.75,0.25,-0.02685547,-0.003417969,1.009766,-0.5136719,-0.8251953,-3.179199
3519,-2.9375,0.6875,0,-0.01904297,-0.01123047,1.041016,-0.5136719,-0.8251953,-3.179199
3523,-2.5625,1.0625,0.0625,-0.003417969,0,1.029297,-0.5136719,-0.8251953,-3.179199
3524,-2.875,1.0625,0,-0.01513672,-0.003417969,1.009766,-0.5136719,-0.8251953,-3.179199
3528,-2.875,0.75,0.25,-0.03076172,-0.01513672,1.009766,-0.527832,-0.8208008,-3.17627
3529,-3,0.75,0.1875,-0.02685547,0,1.029297,-0.527832,-0.8208008,-3.17627
3533,-2.75,0.875,0.3125,-0.03076172,0,1.013672,-0.527832,-0.8208008,-3.17627
3534,-2.75,0.9375,0.0625,-0.03466797,-0.003417969,1.017578,-0.527832,-0.8232422,-3.163574
3538,-3,0.625,0.0625,-0.02685547,0.003417969,1.029297,-0.527832,-0.8232422,-3.163574
3539,-2.8125,0.625,0,-0.02294922,-0.01513672,1.001953,-0.527832,-0.8232422,-3.163574
3543,-2.875,0.75,0.125,-0.02685547,-0.003417969,1.048828,-0.5161133,-0.8300781,-3.173828
3544,-2.9375,0.5625,0.0625,-0.01513672,-0.01123047,1.033203,-0.5161133,-0.8300781,-3.173828
3548,-2.9375,0.625,0.3125,-0.03076172,-0.007324219,1.052734,-0.5161133,-0.8300781,-3.173828
3549,-2.75,1,0.0625,-0.02294922,-0.01513672,1.017578,-0.5161133,-0.8300781,-3.173828
3553,-2.75,0.9375,0.3125,-0.01123047,-0.007324219,1.029297,-0.5229492,-0.8251953,-3.173828
3554,-3.0625,0.75,0,-0.01513672,0,1.017578,-0.5229492,-0.8251953,-3.173828
3558,-3.0625,0.6875,0,-0.02294922,-0.003417969,1.017578,-0.5229492,-0.8251953,-3.173828
3559,-2.9375,1.0625,0.0625,-0.01513672,0,1.033203,-0.5205078,-0.8251953,-3.179199
3563,-2.875,0.8125,0.125,-0.02685547,0,1.044922,-0.5205078,-0.8251953,-3.179199
3564,-3.0625,0.625,0.3125,-0.01904297,-0.007324219,1.021484,-0.5205078,-0.8251953,-3.179199
3568,-2.8125,0.75,0.1875,-0.02294922,0.01123047,1.017578,-0.5161133,-0.8276367,-3.166016
3569,-3.0625,0.875,0,-0.03076172,-0.003417969,1.037109,-0.5161133,-0.8276367,-3.166016
3573,-2.6875,0.75,0,-0.01123047,0.003417969,1.033203,-0.5161133,-0.8276367,-3.166016
3574,-2.9375,0.875,0.1875,-0.03466797,-0.01904297,1.021484,-0.5161133,-0.8276367,-3.166016
3578,-2.9375,0.75,0.125,-0.01513672,0,1.021484,-0.5205078,-0.8300781,-3.17627
3579,-2.875,0.8125,0.1875,-0.007324219,-0.01513672,1.025391,-0.5205078,-0.8300781,-3.17627
3583,-2.875,0.625,0.125,-0.01513672,-0.007324219,1.025391,-0.5205078,-0.8300781,-3.17627
3584,-2.75,0.8125,0,-0.02685547,-0.003417969,1.021484,-0.5185547,-0.8325195,-3.173828
3588,-2.9375,0.875,0.125,-0.01513672,0.007324219,1.001953,-0.5185547,-0.8325195,-3.173828
3589,-2.8125,0.75,0.125,-0.02294922,0.003417969,1.029297,-0.5185547,-0.8325195,-3.173828
3593,-2.625,0.875,0,-0.01513672,-0.01513672,1.029297,-0.5229492,-0.8232422,-3.171387
3594,-2.625,0.875,0,-0.003417969,-0.02294922,1.017578,-0.5229492,-0.8232422,-3.171387
3598,-2.875,0.75,0.0625,-0.01904297,-0.01123047,1.017578,-0.5229492,-0.8232422,-3.171387
3599,-2.8125,0.75,0.0625,-0.01513672,-0.007324219,1.033203,-0.5229492,-0.8232422,-3.171387
3603,-2.9375,0.8125,0.25,-0.02294922,-0.01123047,1.017578,-0.5205078,-0.8300781,-3.17627
3604,-2.875,0.8125,0,-0.01123047,0.007324219,1.013672,-0.5205078,-0.8300781,-3.17627
3608,-3,0.625,0.375,-0.003417969,-0.01904297,1.009766,-0.5205078,-0.8300781,-3.17627
