Packet Number,Gyroscope X (deg/s),Gyroscope Y (deg/s),Gyroscope Z (deg/s),Accelerometer X (g),Accelerometer Y (g),Accelerometer Z (g),Magnetometer X (G),Magnetometer Y (G),Magnetometer Z (G)
3,-1.0625,-9.75,-2.125,-0.08544922,-0.08154297,1.001953,0.1547852,-0.01708984,-0.5029297
5,-1.0625,-9.75,-2.125,-0.08544922,-0.08154297,1.001953,0.1547852,-0.01708984,-0.5029297
6,-1.125,-9.9375,-2.3125,-0.07373047,-0.09326172,0.9946289,0.1547852,-0.01708984,-0.5029297
8,-0.875,-9.75,-1.875,-0.08935547,-0.1010742,0.9907227,0.1567383,-0.01513672,-0.4936523
9,-1.125,-9.125,-2.375,-0.07373047,-0.07763672,0.9946289,0.1567383,-0.01513672,-0.4936523
11,-1.75,-8.6875,-1.6875,-0.08544922,-0.05810547,0.9790039,0.1567383,-0.01513672,-0.4936523
12,-1.875,-7.9375,-1.5625,-0.08544922,-0.09326172,1.009766,0.1547852,-0.01513672,-0.5102539
14,-1.4375,-7.6875,-1,-0.08154297,-0.1088867,1.009766,0.1547852,-0.01513672,-0.5102539
15,-1.125,-7.25,-0.9375,-0.06982422,-0.06201172,1.017578,0.1547852,-0.01513672,-0.5102539
17,-0.5,-6.9375,-0.6875,-0.06982422,-0.08154297,1.001953,0.1567383,-0.01074219,-0.5078125
18,-0.3125,-5.875,-0.9375,-0.1049805,-0.09326172,1.029297,0.1567383,-0.01074219,-0.5078125
20,0.0625,-5.5,-1.25,-0.07373047,-0.09326172,1.009766,0.1567383,-0.01074219,-0.5078125
21,0.3125,-5.4375,-0.4375,-0.06982422,-0.06591797,1.029297,0.1567383,-0.01074219,-0.5078125
23,0.9375,-4.9375,-0.9375,-0.1010742,-0.08544922,0.9868164,0.1567383,-0.01074219,-0.5078125
24,0.8125,-4.375,-0.4375,-0.06982422,-0.07763672,0.9907227,0.1567383,-0.01074219,-0.5078125
26,1.8125,-4.8125,-0.5,-0.06201172,-0.09716797,0.9946289,0.1567383,-0.01074219,-0.5078125
27,1.625,-4.375,-0.5,-0.07763672,-0.09326172,0.9750977,0.1523438,-0.02392578,-0.5053711
29,1.6875,-4.5625,-0.1875,-0.06982422,-0.09326172,0.9946289,0.1523438,-0.02392578,-0.5053711
30,1.5625,-4.75,0.1875,-0.08935547,-0.08935547,0.9790039,0.1523438,-0.02392578,-0.5053711
32,1.25,-4.8125,0,-0.06201172,-0.09326172,0.9868164,0.1479492,-0.008300781,-0.5029297
33,1.25,-5.375,0.1875,-0.07763672,-0.09716797,0.9868164,0.1479492,-0.008300781,-0.5029297
35,0.6875,-5.5625,0,-0.05029297,-0.1088867,0.9985352,0.1479492,-0.008300781,-0.5029297
36,0.9375,-6.25,0.125,-0.04638672,-0.09326172,0.9790039,0.1523438,-0.01269531,-0.5029297
38,0.5625,-6.5,0,-0.06591797,-0.07373047,0.9868164,0.1523438,-0.01269531,-0.5029297
39,1.3125,-7.3125,-0.25,-0.05810547,-0.06591797,0.9907227,0.1523438,-0.01269531,-0.5029297
41,1.625,-7.5625,-0.8125,-0.06982422,-0.09326172,0.9868164,0.1523438,-0.01269531,-0.5029297
42,2,-7.5,-0.125,-0.05810547,-0.09326172,1.001953,0.1503906,-0.01513672,-0.5078125
44,1.6875,-7.5625,-0.5,-0.07763672,-0.09716797,1.005859,0.1503906,-0.01513672,-0.5078125
45,1.375,-7.75,0,-0.04638672,-0.09326172,0.9946289,0.1503906,-0.01513672,-0.5078125
47,1.1875,-7.125,0.6875,-0.06591797,-0.09326172,0.9711914,0.1523438,-0.02148438,-0.5053711
48,0.4375,-7.625,0.5,-0.06591797,-0.1010742,0.9868164,0.1523438,-0.02148438,-0.5053711
50,-0.4375,-7.4375,0.25,-0.05419922,-0.1049805,0.9868164,0.1523438,-0.02148438,-0.5053711
51,0.1875,-6.375,0.0625,-0.06201172,-0.1049805,0.9750977,0.1547852,-0.01953125,-0.5078125
53,0.8125,-5.9375,0.5625,-0.05810547,-0.07763672,1.005859,0.1547852,-0.01953125,-0.5078125
54,1.5625,-5.25,-0.125,-0.06201172,-0.07373047,0.9946289,0.1547852,-0.01953125,-0.5078125
56,1.9375,-4.875,0.375,-0.05029297,-0.08544922,0.9985352,0.1547852,-0.01953125,-0.5078125
57,2.0625,-3.875,0.6875,-0.05029297,-0.08935547,1.001953,0.1547852,-0.01953125,-0.5078125
59,1.8125,-3.1875,0.875,-0.05810547,-0.09326172,1.009766,0.1547852,-0.01953125,-0.5078125
60,2,-2.625,1.1875,-0.04248047,-0.09326172,1.001953,0.1547852,-0.01953125,-0.5078125
62,2.125,-2.125,1.4375,-0.04248047,-0.1010742,1.013672,0.1547852,-0.02392578,-0.4985352
63,2.1875,-1.625,1.0625,-0.05810547,-0.09716797,1.005859,0.1547852,-0.02392578,-0.4985352
65,2.125,-1.0625,0.5,-0.04638672,-0.08154297,0.9868164,0.1547852,-0.02392578,-0.4985352
66,2.4375,-0.125,0.4375,-0.08154297,-0.07373047,0.9868164,0.1523438,-0.01269531,-0.5004883
68,3.0625,-0.3125,0,-0.04638672,-0.08154297,0.9985352,0.1523438,-0.01269531,-0.5004883
69,2.9375,0.5,0,-0.05029297,-0.07763672,1.005859,0.1523438,-0.01269531,-0.5004883
71,3.0625,1.0625,-0.0625,-0.07373047,-0.07763672,1.009766,0.1567383,-0.02148438,-0.4985352
72,3.375,1.3125,-0.875,-0.05419922,-0.08544922,0.9868164,0.1567383,-0.02148438,-0.4985352
74,3.625,1.375,-0.9375,-0.07373047,-0.07763672,0.9868164,0.1567383,-0.02148438,-0.4985352
75,3.0625,1.8125,-1.9375,-0.05419922,-0.06591797,1.005859,0.1567383,-0.02148438,-0.4985352
77,3.0625,2,-2.5625,-0.07763672,-0.08154297,1.001953,0.1635742,-0.01513672,-0.5004883
78,2.8125,2.25,-2.3125,-0.05810547,-0.06591797,1.001953,0.1635742,-0.01513672,-0.5004883
80,3.125,2.6875,-2.375,-0.04638672,-0.07373047,1.009766,0.1635742,-0.01513672,-0.5004883
81,2.75,2.4375,-2.5,-0.05419922,-0.05810547,1.005859,0.1459961,-0.02148438,-0.4960938
83,3.125,1.875,-2.25,-0.04638672,-0.05810547,1.017578,0.1459961,-0.02148438,-0.4960938
84,3.0625,2.5,-2.75,-0.07763672,-0.05810547,1.005859,0.1459961,-0.02148438,-0.4960938
86,2.8125,2.3125,-2.5,-0.07373047,-0.07763672,0.9946289,0.1567383,-0.01708984,-0.5102539
87,2,2.5625,-2.125,-0.06982422,-0.06982422,0.9868164,0.1567383,-0.01708984,-0.5102539
89,2.0625,1.5625,-2.125,-0.07373047,-0.06982422,1.001953,0.1567383,-0.01708984,-0.5102539
90,1.5,2.1875,-1.5625,-0.08154297,-0.07373047,0.9946289,0.1567383,-0.01708984,-0.5102539
92,1.5625,1.3125,-1.4375,-0.06591797,-0.08544922,0.9946289,0.1567383,-0.01708984,-0.5102539
93,1.125,0.875,-0.125,-0.06591797,-0.08935547,0.9868164,0.1567383,-0.01708984,-0.5102539
95,1.5625,0.9375,0.25,-0.07373047,-0.09326172,1.001953,0.1567383,-0.01708984,-0.5102539
96,1.625,-0.375,0.1875,-0.06201172,-0.07373047,0.9985352,0.1503906,-0.01513672,-0.5029297
98,1.1875,-0.1875,0.8125,-0.05029297,-0.06591797,0.9829102,0.1503906,-0.01513672,-0.5029297
99,1.5,-0.875,1.5,-0.04248047,-0.05810547,1.001953,0.1503906,-0.01513672,-0.5029297
101,1.625,-1.25,1.4375,-0.07373047,-0.07763672,0.9829102,0.1547852,-0.01708984,-0.4960938
102,1.5,-2.125,1.4375,-0.05419922,-0.1010742,1.017578,0.1547852,-0.01708984,-0.4960938
104,1.125,-2.0625,1.4375,-0.05029297,-0.07373047,1.005859,0.1547852,-0.01708984,-0.4960938
105,1.375,-2.75,1.625,-0.06591797,-0.06982422,0.9907227,0.1503906,-0.02587891,-0.5053711
107,1.625,-3.25,1.75,-0.05810547,-0.06201172,0.9946289,0.1503906,-0.02587891,-0.5053711
108,1.3125,-3.375,1.75,-0.05029297,-0.08154297,1.005859,0.1503906,-0.02587891,-0.5053711
110,0.8125,-3.375,0.9375,-0.06201172,-0.05810547,0.9946289,0.1503906,-0.02587891,-0.5053711
111,1.25,-4.0625,1,-0.06591797,-0.07373047,1.013672,0.1459961,-0.01708984,-0.5053711
113,0.6875,-3.6875,1.1875,-0.04638672,-0.09326172,1.013672,0.1459961,-0.01708984,-0.5053711
114,0.6875,-3.125,1.125,-0.05419922,-0.08154297,0.9946289,0.1459961,-0.01708984,-0.5053711
116,-0.0625,-3.0625,1.3125,-0.06201172,-0.06201172,0.9829102,0.1616211,-0.01708984,-0.4960938
117,-0.0625,-2.6875,1.5,-0.06201172,-0.08544922,1.005859,0.1616211,-0.01708984,-0.4960938
119,-0.0625,-2.875,1.5,-0.04638672,-0.09326172,0.9829102,0.1616211,-0.01708984,-0.4960938
120,0.9375,-2,0.375,-0.05029297,-0.08154297,1.001953,0.1479492,-0.02392578,-0.5078125
122,0.875,-1.5,0.5625,-0.05810547,-0.07373047,1.013672,0.1479492,-0.02392578,-0.5078125
123,1.5625,-1.375,0,-0.04248047,-0.06201172,0.9985352,0.1479492,-0.02392578,-0.5078125
125,1.125,-0.8125,0.1875,-0.04638672,-0.06982422,0.9946289,0.1479492,-0.02392578,-0.5078125
126,1.8125,0.0625,-0.3125,-0.06591797,-0.09326172,0.9946289,0.1479492,-0.02392578,-0.5078125
128,1.8125,0.8125,-0.5625,-0.05029297,-0.08154297,1.013672,0.1479492,-0.02392578,-0.5078125
129,2.0625,1.4375,-1.125,-0.05029297,-0.06982422,0.9985352,0.1479492,-0.02392578,-0.5078125
131,2.0625,1.0625,-1,-0.06591797,-0.07763672,1.005859,0.1567383,-0.01269531,-0.4960938
132,2.375,2.125,-1.8125,-0.06591797,-0.06591797,1.001953,0.1567383,-0.01269531,-0.4960938
134,2.4375,1.9375,-1.25,-0.07373047,-0.06201172,1.029297,0.1567383,-0.01269531,-0.4960938
135,2.125,3.375,-1.875,-0.08935547,-0.06591797,1.017578,0.1523438,-0.01953125,-0.5029297
137,1.875,3.3125,-2,-0.08154297,-0.08935547,0.9985352,0.1523438,-0.01953125,-0.5029297
138,1.75,3.875,-0.4375,-0.07373047,-0.05419922,0.9946289,0.1523438,-0.01953125,-0.5029297
140,1.5625,4.3125,-0.875,-0.06982422,-0.06201172,1.005859,0.1523438,-0.01269531,-0.5102539
141,1.875,4.375,-0.625,-0.06982422,-0.07373047,1.001953,0.1523438,-0.01269531,-0.5102539
143,1.75,4.5625,-0.0625,-0.05810547,-0.07763672,0.9946289,0.1523438,-0.01269531,-0.5102539
144,1.375,4.3125,0.1875,-0.06201172,-0.06982422,1.001953,0.1523438,-0.01269531,-0.5102539
146,1.5625,3.5,0.75,-0.05419922,-0.06591797,0.9985352,0.1459961,-0.02832031,-0.5029297
147,1.1875,3.375,0.75,-0.06982422,-0.08935547,0.9907227,0.1459961,-0.02832031,-0.5029297
149,0.4375,3.3125,1.875,-0.06591797,-0.1010742,0.9790039,0.1459961,-0.02832031,-0.5029297
150,-0.375,2.625,1.875,-0.06201172,-0.08544922,1.009766,0.1479492,-0.02392578,-0.4960938
152,0.0625,2.1875,2.125,-0.05029297,-0.08544922,1.005859,0.1479492,-0.02392578,-0.4960938
153,-0.0625,1.6875,2.1875,-0.05419922,-0.08544922,1.001953,0.1479492,-0.02392578,-0.4960938
155,0.375,1.125,2,-0.04638672,-0.06591797,0.9985352,0.1479492,-0.01708984,-0.5078125
156,0.3125,0.5,1.6875,-0.06591797,-0.09326172,0.9829102,0.1479492,-0.01708984,-0.5078125
158,-0.4375,-0.375,1.875,-0.04638672,-0.07763672,0.9907227,0.1479492,-0.01708984,-0.5078125
159,-0.3125,-0.5625,2.125,-0.05029297,-0.08154297,1.017578,0.1479492,-0.01708984,-0.5078125
161,-0.5,-0.4375,1.75,-0.05419922,-0.07763672,0.9985352,0.1479492,-0.01708984,-0.5078125
162,-0.9375,-0.5,0.875,-0.06201172,-0.07373047,1.013672,0.1479492,-0.01708984,-0.5078125
164,-0.0625,-0.6875,1,-0.05810547,-0.08154297,1.013672,0.1479492,-0.01708984,-0.5078125
165,0.5625,-0.8125,1,-0.05029297,-0.06982422,1.013672,0.1616211,-0.02392578,-0.5029297
167,0.6875,-0.9375,0.625,-0.05419922,-0.09716797,0.9985352,0.1616211,-0.02392578,-0.5029297
168,0.875,-0.9375,-0.3125,-0.05810547,-0.09326172,0.9946289,0.1616211,-0.02392578,-0.5029297
170,0.3125,-1.4375,-0.375,-0.05419922,-0.06591797,1.001953,0.1547852,-0.02587891,-0.5078125
171,0.6875,-0.8125,-1,-0.06591797,-0.06591797,0.9985352,0.1547852,-0.02587891,-0.5078125
173,0.5,-1.1875,-1.375,-0.06591797,-0.06982422,0.9946289,0.1547852,-0.02587891,-0.5078125
174,0.8125,-0.8125,-0.6875,-0.05810547,-0.07373047,1.005859,0.1503906,-0.006347656,-0.5053711
176,1.0625,-1.375,-1.3125,-0.05419922,-0.06982422,0.9985352,0.1503906,-0.006347656,-0.5053711
177,0.3125,-1.5,-1.5,-0.07373047,-0.05810547,1.009766,0.1503906,-0.006347656,-0.5053711
179,0.5,-1.3125,-1.75,-0.06591797,-0.05029297,1.013672,0.1503906,-0.006347656,-0.5053711
180,0.625,-1.75,-1.1875,-0.07373047,-0.08154297,1.009766,0.1503906,-0.02148438,-0.5053711
182,0.3125,-2,-1.625,-0.06591797,-0.06982422,1.001953,0.1503906,-0.02148438,-0.5053711
183,0.1875,-2,-1.4375,-0.05810547,-0.08544922,0.9985352,0.1503906,-0.02148438,-0.5053711
185,-0.625,-1.8125,-1.5,-0.07373047,-0.06591797,0.9946289,0.1459961,-0.02148438,-0.5029297
186,-0.25,-1.9375,-1.1875,-0.05810547,-0.06982422,1.009766,0.1459961,-0.02148438,-0.5029297
188,-1.25,-2.4375,-0.4375,-0.05029297,-0.09326172,1.009766,0.1459961,-0.02148438,-0.5029297
189,-1.375,-2.375,-0.75,-0.05029297,-0.08935547,0.9985352,0.1479492,-0.01708984,-0.5102539
191,-1,-2.875,-0.3125,-0.05810547,-0.06982422,0.9868164,0.1479492,-0.01708984,-0.5102539
192,-1,-2.9375,-0.1875,-0.03076172,-0.07763672,1.001953,0.1479492,-0.01708984,-0.5102539
194,-1,-3.1875,0,-0.04248047,-0.07763672,0.9868164,0.1479492,-0.01708984,-0.5102539
195,-1,-3.5,0.4375,-0.05810547,-0.06201172,1.013672,0.1479492,-0.01708984,-0.5102539
197,-1.1875,-3.375,0.25,-0.05029297,-0.08935547,1.005859,0.1479492,-0.01708984,-0.5102539
198,-0.8125,-3.8125,0.3125,-0.06591797,-0.09326172,1.001953,0.1479492,-0.01708984,-0.5102539
200,-1.25,-3.75,0.375,-0.04248047,-0.06982422,1.009766,0.1435547,-0.01953125,-0.5078125
201,-0.8125,-3.125,0.5,-0.04638672,-0.07763672,1.033203,0.1435547,-0.01953125,-0.5078125
203,-1.5,-3.4375,0.5625,-0.05029297,-0.06982422,1.009766,0.1435547,-0.01953125,-0.5078125
204,-1.5,-2.875,1.125,-0.06591797,-0.09326172,1.013672,0.1616211,-0.01708984,-0.5029297
206,-1.4375,-2.375,1,-0.05029297,-0.06591797,0.9946289,0.1616211,-0.01708984,-0.5029297
207,-1.625,-2.1875,0.6875,-0.03466797,-0.07373047,0.9946289,0.1616211,-0.01708984,-0.5029297
209,-1.5625,-2,0.5625,-0.06201172,-0.06591797,1.005859,0.1523438,-0.01953125,-0.5004883
210,-1.0625,-1.6875,0.4375,-0.06591797,-0.08154297,0.9946289,0.1523438,-0.01953125,-0.5004883
212,-0.8125,-1.375,0.25,-0.05419922,-0.06591797,0.9985352,0.1523438,-0.01953125,-0.5004883
213,-0.75,-1.375,0,-0.05029297,-0.07373047,0.9907227,0.1523438,-0.01953125,-0.5004883
215,-0.875,-1.4375,-0.5,-0.05810547,-0.06591797,0.9985352,0.1523438,-0.01269531,-0.5078125
216,-0.375,-1.75,0,-0.07373047,-0.04638672,1.005859,0.1523438,-0.01269531,-0.5078125
218,-0.1875,-1.3125,-0.3125,-0.05810547,-0.05810547,1.001953,0.1523438,-0.01269531,-0.5078125
219,-0.4375,-1.3125,-0.375,-0.05029297,-0.06201172,1.029297,0.1523438,-0.01708984,-0.5053711
221,0.5,-1,-1.3125,-0.04248047,-0.09326172,0.9946289,0.1523438,-0.01708984,-0.5053711
222,0.4375,-0.4375,-1.0625,-0.07373047,-0.08544922,0.9907227,0.1523438,-0.01708984,-0.5053711
224,0,-0.1875,-0.5,-0.07373047,-0.08154297,1.001953,0.1479492,-0.02148438,-0.4960938
225,-1,0.6875,-0.6875,-0.07763672,-0.05810547,0.9985352,0.1479492,-0.02148438,-0.4960938
227,-0.625,0.5625,-0.5625,-0.06591797,-0.06591797,0.9985352,0.1479492,-0.02148438,-0.4960938
228,-0.5625,1.5625,-0.6875,-0.07373047,-0.06201172,1.009766,0.1479492,-0.02148438,-0.4960938
230,-0.5625,1.625,-0.375,-0.05419922,-0.05029297,1.009766,0.1479492,-0.02148438,-0.4960938
231,-0.0625,1.5625,0,-0.05419922,-0.04638672,0.9829102,0.1479492,-0.02148438,-0.4960938
233,0,1.4375,0,-0.05029297,-0.06982422,1.029297,0.1479492,-0.02148438,-0.4960938
234,0.0625,1.125,0.1875,-0.04248047,-0.05810547,1.005859,0.1411133,-0.01074219,-0.5004883
236,-0.3125,1.5,0.5,-0.04248047,-0.05029297,0.9907227,0.1411133,-0.01074219,-0.5004883
237,0.3125,1.25,0.6875,-0.06982422,-0.09716797,1.005859,0.1411133,-0.01074219,-0.5004883
239,-0.1875,1,1.0625,-0.07373047,-0.08935547,0.9946289,0.1459961,-0.02148438,-0.4985352
240,-0.4375,0.9375,1.125,-0.03076172,-0.07373047,0.9907227,0.1459961,-0.02148438,-0.4985352
242,-1.125,0.5625,1.25,-0.03076172,-0.07763672,0.9829102,0.1459961,-0.02148438,-0.4985352
243,-0.8125,0.3125,0.9375,-0.06591797,-0.06982422,1.001953,0.1503906,-0.01953125,-0.5151367
245,-0.6875,0,1,-0.05029297,-0.06982422,1.005859,0.1503906,-0.01953125,-0.5151367
246,-0.75,0,1,-0.05810547,-0.07373047,0.9907227,0.1503906,-0.01953125,-0.5151367
248,-0.625,0.5625,1.125,-0.03076172,-0.06201172,0.9907227,0.1503906,-0.01953125,-0.5151367
249,-0.8125,0.625,1.25,-0.05029297,-0.07373047,0.9946289,0.1479492,-0.006347656,-0.5126953
251,-0.375,1.5625,0.875,-0.06591797,-0.08935547,0.9985352,0.1479492,-0.006347656,-0.5126953
252,0.3125,1.4375,0.875,-0.06201172,-0.06982422,1.001953,0.1479492,-0.006347656,-0.5126953
254,0.0625,1.75,0.9375,-0.05419922,-0.06201172,1.001953,0.1523438,-0.02392578,-0.5126953
255,0.5,1.625,0,-0.07763672,-0.09326172,1.013672,0.1523438,-0.02392578,-0.5126953
257,0.1875,1.3125,0,-0.05419922,-0.08544922,1.013672,0.1523438,-0.02392578,-0.5126953
258,0.3125,2,-0.4375,-0.05419922,-0.06591797,0.9907227,0.1435547,-0.01513672,-0.5102539
260,0.5625,2.125,-0.25,-0.05419922,-0.09716797,1.001953,0.1435547,-0.01513672,-0.5102539
261,0.3125,2.4375,-0.75,-0.06591797,-0.09326172,0.9985352,0.1435547,-0.01513672,-0.5102539
263,0.5,2.6875,-0.3125,-0.06201172,-0.06982422,0.9829102,0.1435547,-0.01513672,-0.5102539
264,0.5625,2.875,-0.125,-0.05029297,-0.07763672,0.9985352,0.1435547,-0.01513672,-0.5102539
266,0.6875,2.375,-0.25,-0.05810547,-0.07373047,1.005859,0.1435547,-0.01513672,-0.5102539
267,1.5625,2.6875,-0.375,-0.06201172,-0.09326172,0.9868164,0.1435547,-0.01513672,-0.5102539
269,1.6875,2.4375,0.25,-0.05419922,-0.1010742,0.9790039,0.1459961,-0.01953125,-0.4960938
270,1.5625,2.9375,0.375,-0.07373047,-0.09326172,0.9907227,0.1459961,-0.01953125,-0.4960938
272,1.0625,2.5625,0.5625,-0.04638672,-0.09326172,0.9946289,0.1459961,-0.01953125,-0.4960938
273,-0.875,2.125,0.625,-0.04638672,-0.08544922,1.005859,0.1459961,-0.02832031,-0.5078125
275,-0.8125,1.375,-0.4375,-0.06591797,-0.05419922,0.9711914,0.1459961,-0.02832031,-0.5078125
276,-0.6875,1.5,-0.25,-0.05810547,-0.06201172,1.009766,0.1459961,-0.02832031,-0.5078125
278,0.3125,2.75,0,-0.05810547,-0.06591797,0.9946289,0.1503906,-0.01953125,-0.4985352
279,0.8125,2.9375,0.125,-0.07373047,-0.06982422,1.025391,0.1503906,-0.01953125,-0.4985352
281,1.5,3.9375,1.6875,-0.05029297,-0.06591797,1.005859,0.1503906,-0.01953125,-0.4985352
282,2.1875,4.375,1.8125,-0.04638672,-0.06982422,1.017578,0.1503906,-0.01953125,-0.4985352
284,2.125,5.0625,1.6875,-0.05419922,-0.08544922,0.9985352,0.1479492,-0.01953125,-0.5004883
285,1.9375,5.375,1.75,-0.04638672,-0.08154297,0.9790039,0.1479492,-0.01953125,-0.5004883
287,1.4375,5.375,2.75,-0.06591797,-0.06591797,0.9868164,0.1479492,-0.01953125,-0.5004883
288,1.0625,4.75,2.625,-0.05029297,-0.07763672,0.9985352,0.1503906,-0.01708984,-0.4960938
290,1.125,4.1875,3.4375,-0.03076172,-0.07763672,0.9946289,0.1503906,-0.01708984,-0.4960938
291,0.0625,2.875,3.0625,-0.04248047,-0.05810547,0.9985352,0.1503906,-0.01708984,-0.4960938
293,0.1875,2.375,3,-0.03857422,-0.06982422,1.001953,0.1459961,-0.01953125,-0.4912109
294,0.0625,1.0625,2.75,-0.04638672,-0.07763672,0.9985352,0.1459961,-0.01953125,-0.4912109
296,1.0625,0.8125,2.4375,-0.06591797,-0.05810547,0.9672852,0.1459961,-0.01953125,-0.4912109
297,0.9375,0,2.5,-0.03857422,-0.06201172,1.029297,0.1459961,-0.01953125,-0.4912109
299,1,-0.875,2.375,-0.05810547,-0.05810547,0.9868164,0.1459961,-0.01953125,-0.4912109
300,1,-1,2.5,-0.05419922,-0.06982422,1.017578,0.1459961,-0.01953125,-0.4912109
302,0.9375,-1.5,2.8125,-0.04638672,-0.04638672,1.001953,0.1459961,-0.01953125,-0.4912109
303,0.0625,-2.1875,2.125,-0.06201172,-0.05419922,0.9985352,0.1479492,-0.02392578,-0.4985352
305,-0.5625,-2.25,2.4375,-0.05029297,-0.08154297,1.013672,0.1479492,-0.02392578,-0.4985352
306,-0.375,-2.875,2.0625,-0.04638672,-0.06201172,0.9946289,0.1479492,-0.02392578,-0.4985352
308,-0.4375,-2.6875,2.0625,-0.07373047,-0.06201172,0.9907227,0.1616211,-0.01708984,-0.5078125
309,-0.8125,-2.6875,1.75,-0.06201172,-0.06201172,1.001953,0.1616211,-0.01708984,-0.5078125
311,-0.375,-2.875,0.625,-0.04638672,-0.05419922,1.005859,0.1616211,-0.01708984,-0.5078125
312,-0.5,-3.4375,0.375,-0.03857422,-0.06201172,1.017578,0.1435547,-0.01953125,-0.5102539
314,-0.125,-3.375,-0.1875,-0.05029297,-0.07763672,1.013672,0.1435547,-0.01953125,-0.5102539
315,-0.5625,-3.0625,-0.75,-0.04248047,-0.06201172,0.9946289,0.1435547,-0.01953125,-0.5102539
317,-0.5625,-2.75,-1.4375,-0.07763672,-0.06591797,1.005859,0.1435547,-0.01953125,-0.5102539
318,-0.625,-2.75,-2,-0.06591797,-0.07373047,1.009766,0.1503906,-0.02148438,-0.5004883
320,-1.1875,-2.3125,-2.5,-0.07373047,-0.09326172,1.005859,0.1503906,-0.02148438,-0.5004883
321,-0.5625,-1.1875,-2.4375,-0.04638672,-0.07373047,1.017578,0.1503906,-0.02148438,-0.5004883
323,-0.8125,-2,-2.3125,-0.05810547,-0.06982422,1.017578,0.1567383,-0.01953125,-0.5004883
324,-0.6875,-1.375,-2.8125,-0.05029297,-0.06591797,1.001953,0.1567383,-0.01953125,-0.5004883
326,-0.5625,-2,-2.5,-0.05029297,-0.06591797,1.009766,0.1567383,-0.01953125,-0.5004883
327,0.375,-2.4375,-2.6875,-0.07373047,-0.08935547,1.025391,0.1479492,-0.01953125,-0.5078125
329,0,-1.9375,-2.25,-0.05810547,-0.07373047,1.021484,0.1479492,-0.01953125,-0.5078125
330,0.1875,-2.6875,-2.3125,-0.06201172,-0.09326172,0.9946289,0.1479492,-0.01953125,-0.5078125
332,-0.9375,-2.9375,-1.9375,-0.06982422,-0.05029297,0.9790039,0.1479492,-0.01953125,-0.5078125
333,-0.5,-2.875,-1.375,-0.06591797,-0.08935547,1.001953,0.1479492,-0.01953125,-0.5078125
335,-0.625,-3.25,-0.6875,-0.06201172,-0.09326172,1.021484,0.1479492,-0.01953125,-0.5078125
336,-0.625,-2.75,0,-0.06591797,-0.08544922,1.001953,0.1479492,-0.01953125,-0.5078125
338,-1.6875,-2.9375,0,-0.07373047,-0.05419922,0.9946289,0.1435547,-0.01953125,-0.5029297
339,-1.6875,-2.9375,0.5625,-0.05810547,-0.07763672,0.9790039,0.1435547,-0.01953125,-0.5029297
341,-1.1875,-2.5625,0.6875,-0.06591797,-0.07763672,0.9946289,0.1435547,-0.01953125,-0.5029297
342,-1.625,-2.9375,0.5,-0.05810547,-0.08154297,1.005859,0.1435547,-0.01269531,-0.5102539
344,-1.1875,-2.6875,0.6875,-0.06591797,-0.08154297,0.9985352,0.1435547,-0.01269531,-0.5102539
345,-0.6875,-2.3125,0.75,-0.06201172,-0.08544922,0.9907227,0.1435547,-0.01269531,-0.5102539
347,-0.6875,-1.9375,1,-0.05810547,-0.07373047,1.013672,0.1523438,-0.01513672,-0.5053711
348,-1.125,-1.875,1.3125,-0.05029297,-0.1049805,1.021484,0.1523438,-0.01513672,-0.5053711
350,-1.6875,-1.375,1.25,-0.04248047,-0.09326172,0.9868164,0.1523438,-0.01513672,-0.5053711
351,-1.8125,-1.4375,1.0625,-0.05029297,-0.06982422,1.013672,0.1523438,-0.01513672,-0.5053711
353,-1.0625,-1.0625,1.5625,-0.06201172,-0.07373047,0.9868164,0.1459961,-0.01708984,-0.5126953
354,-0.625,-1,1.0625,-0.04638672,-0.09326172,0.9907227,0.1459961,-0.01708984,-0.5126953
356,-1.25,-0.875,0.875,-0.04638672,-0.09326172,0.9946289,0.1459961,-0.01708984,-0.5126953
357,-2.1875,0.5,2,-0.04638672,-0.09326172,0.9907227,0.1479492,-0.01513672,-0.5029297
359,-2.75,0.3125,1.875,-0.05419922,-0.08544922,0.9946289,0.1479492,-0.01513672,-0.5029297
360,-2.75,0.75,1.9375,-0.02685547,-0.09716797,1.001953,0.1479492,-0.01513672,-0.5029297
362,-1.4375,1.5,2.1875,-0.04638672,-0.08154297,1.005859,0.1523438,-0.01269531,-0.4960938
363,-1.125,1.875,1.875,-0.03857422,-0.07763672,0.9946289,0.1523438,-0.01269531,-0.4960938
365,0.3125,3,1.6875,-0.04248047,-0.06591797,1.001953,0.1523438,-0.01269531,-0.4960938
366,1.125,2.9375,1.5,-0.06591797,-0.05029297,1.009766,0.1523438,-0.01269531,-0.4960938
368,1.4375,3.5,1.125,-0.05029297,-0.09326172,1.009766,0.1523438,-0.01269531,-0.4960938
369,1.9375,4.1875,0.5625,-0.04248047,-0.06982422,1.009766,0.1523438,-0.01269531,-0.4960938
371,2.125,4.1875,0.375,-0.03076172,-0.06982422,1.009766,0.1523438,-0.01269531,-0.4960938
372,1.75,4.8125,0.3125,-0.05029297,-0.08154297,1.017578,0.1479492,-0.01708984,-0.4985352
374,2,5.1875,-0.5625,-0.02685547,-0.04248047,1.005859,0.1479492,-0.01708984,-0.4985352
375,2.3125,5.5,-1.125,-0.05029297,-0.05029297,1.025391,0.1479492,-0.01708984,-0.4985352
377,2.25,5.25,-2.1875,-0.05029297,-0.05419922,0.9946289,0.1459961,-0.01708984,-0.5078125
378,2.5625,5.25,-2.25,-0.04248047,-0.06591797,0.9907227,0.1459961,-0.01708984,-0.5078125
380,1.375,5.0625,-3.125,-0.05419922,-0.05419922,0.9946289,0.1459961,-0.01708984,-0.5078125
381,0.9375,5,-3.5,-0.07373047,-0.06201172,1.001953,0.1503906,-0.01269531,-0.5078125
383,0.6875,5.75,-3.3125,-0.06591797,-0.09326172,0.9711914,0.1503906,-0.01269531,-0.5078125
384,1.3125,5.4375,-3.5,-0.06982422,-0.07373047,0.9946289,0.1503906,-0.01269531,-0.5078125
386,1.5625,4.375,-3.5,-0.08154297,-0.09326172,0.9790039,0.1503906,-0.01269531,-0.5078125
389,1.9375,5.1875,-4,-0.07373047,-0.06982422,0.9790039,0.1459961,-0.01708984,-0.5126953
391,2.6875,4.25,-3.9375,-0.07763672,-0.08154297,0.9907227,0.1459961,-0.01708984,-0.5126953
392,1.375,3.875,-3.0625,-0.06201172,-0.09326172,0.9829102,0.1459961,-0.01708984,-0.5126953
394,1.5,3.3125,-2.3125,-0.05419922,-0.08154297,0.9711914,0.1503906,-0.01513672,-0.5078125
395,2,2.625,-2.6875,-0.09326172,-0.09326172,0.9672852,0.1503906,-0.01513672,-0.5078125
397,0.625,2.9375,-2.75,-0.06201172,-0.08154297,0.9868164,0.1503906,-0.01513672,-0.5078125
398,0.375,2.3125,-1.9375,-0.08154297,-0.08544922,0.9790039,0.1591797,-0.02148438,-0.5053711
400,-0.0625,2.625,-1.75,-0.08154297,-0.09326172,0.9790039,0.1591797,-0.02148438,-0.5053711
401,-0.1875,2.625,-1.3125,-0.08154297,-0.09326172,0.9711914,0.1591797,-0.02148438,-0.5053711
403,-0.4375,2.0625,-0.5625,-0.06201172,-0.1010742,0.9711914,0.1591797,-0.02148438,-0.5053711
404,-0.875,1.875,-0.3125,-0.06982422,-0.1049805,0.9829102,0.1591797,-0.02148438,-0.5053711
406,-0.6875,1.5,0.1875,-0.07373047,-0.09326172,0.9711914,0.1591797,-0.02148438,-0.5053711
407,-0.6875,1.0625,0.8125,-0.06591797,-0.09326172,0.9985352,0.1591797,-0.02148438,-0.5053711
409,-0.4375,0.1875,0.8125,-0.05419922,-0.07763672,0.9633789,0.1503906,-0.02392578,-0.5078125
410,-0.75,-0.5,0.625,-0.06982422,-0.08154297,0.9790039,0.1503906,-0.02392578,-0.5078125
412,-0.875,-0.9375,0.8125,-0.05029297,-0.07763672,0.9907227,0.1503906,-0.02392578,-0.5078125
413,-0.875,-1.9375,0.9375,-0.05419922,-0.06982422,0.9868164,0.1616211,-0.01953125,-0.5004883
415,-1.1875,-2.5625,0.5625,-0.04638672,-0.07763672,1.033203,0.1616211,-0.01953125,-0.5004883
416,-0.0625,-2.8125,0.75,-0.06201172,-0.07373047,1.029297,0.1616211,-0.01953125,-0.5004883
418,0.4375,-3.6875,0.5625,-0.05810547,-0.05810547,1.029297,0.1547852,-0.00390625,-0.5029297
419,0.5,-3.25,0.6875,-0.06591797,-0.05810547,1.001953,0.1547852,-0.00390625,-0.5029297
421,0.5625,-3.6875,0.875,-0.06201172,-0.06982422,1.009766,0.1547852,-0.00390625,-0.5029297
422,0.625,-3.625,0.9375,-0.06982422,-0.05810547,0.9790039,0.1547852,-0.00390625,-0.5029297
424,1.0625,-4.125,1.0625,-0.05419922,-0.06982422,1.009766,0.1523438,-0.01708984,-0.5053711
425,1.0625,-4.3125,0.6875,-0.04248047,-0.05029297,1.005859,0.1523438,-0.01708984,-0.5053711
427,1.5,-4.5625,0.5625,-0.06591797,-0.05419922,0.9985352,0.1523438,-0.01708984,-0.5053711
428,0.625,-4.3125,0.9375,-0.04638672,-0.05029297,1.001953,0.1503906,-0.02392578,-0.5004883
430,1.3125,-4.25,0.5,-0.05029297,-0.05419922,1.009766,0.1503906,-0.02392578,-0.5004883
431,1.125,-3.75,0.0625,-0.03857422,-0.07373047,1.009766,0.1503906,-0.02392578,-0.5004883
433,0.875,-3.25,-0.0625,-0.05810547,-0.05810547,1.009766,0.1435547,-0.00390625,-0.5102539
434,0.9375,-3.125,-0.5625,-0.05029297,-0.06201172,1.017578,0.1435547,-0.00390625,-0.5102539
436,1,-3.125,-1.375,-0.05419922,-0.05419922,1.029297,0.1435547,-0.00390625,-0.5102539
437,0.8125,-2.5,-1.5,-0.06591797,-0.06591797,1.001953,0.1435547,-0.00390625,-0.5102539
439,0.25,-1.9375,-1.25,-0.05810547,-0.06982422,1.017578,0.1435547,-0.00390625,-0.5102539
440,0.125,-1.8125,-1.75,-0.05810547,-0.07763672,0.9985352,0.1435547,-0.00390625,-0.5102539
442,0.25,-1.875,-2.125,-0.06982422,-0.06591797,0.9750977,0.1435547,-0.00390625,-0.5102539
443,0.375,-1.4375,-2.25,-0.04248047,-0.08154297,0.9790039,0.1503906,-0.01953125,-0.5078125
445,0.5625,-1.1875,-1.9375,-0.07373047,-0.07763672,0.9985352,0.1503906,-0.01953125,-0.5078125
446,1.1875,-0.75,-1.625,-0.06591797,-0.06591797,1.013672,0.1503906,-0.01953125,-0.5078125
448,1.875,-0.875,-1.75,-0.04638672,-0.09326172,1.029297,0.1459961,-0.01513672,-0.5053711
449,2,-0.25,-1.5,-0.07763672,-0.05029297,1.013672,0.1459961,-0.01513672,-0.5053711
451,1.625,-0.3125,-1.875,-0.04248047,-0.09326172,1.001953,0.1459961,-0.01513672,-0.5053711
452,1.0625,-0.3125,-0.875,-0.06982422,-0.06201172,1.005859,0.1435547,-0.01269531,-0.5029297
454,1.1875,-0.6875,-0.875,-0.07373047,-0.05810547,1.017578,0.1435547,-0.01269531,-0.5029297
455,1.25,-0.0625,-0.9375,-0.05810547,-0.06982422,1.021484,0.1435547,-0.01269531,-0.5029297
457,0.25,0.1875,-0.1875,-0.06591797,-0.06982422,1.017578,0.1435547,-0.01269531,-0.5029297
458,0,-0.0625,0.6875,-0.06591797,-0.07763672,1.001953,0.1435547,-0.01953125,-0.5004883
460,-0.4375,0.3125,0.75,-0.05029297,-0.06982422,1.005859,0.1435547,-0.01953125,-0.5004883
461,0.375,-0.0625,1.0625,-0.05419922,-0.09326172,0.9985352,0.1435547,-0.01953125,-0.5004883
463,0.125,-0.25,1.3125,-0.06591797,-0.06982422,0.9985352,0.1435547,-0.01513672,-0.5004883
464,0.8125,-0.0625,0.875,-0.06982422,-0.06201172,1.017578,0.1435547,-0.01513672,-0.5004883
466,0.8125,-0.5,0.6875,-0.05029297,-0.07763672,1.021484,0.1435547,-0.01513672,-0.5004883
467,0.4375,-0.375,1.4375,-0.07373047,-0.06982422,1.029297,0.1411133,-0.01708984,-0.5053711
469,0.5,-0.625,0.9375,-0.04638672,-0.07373047,0.9829102,0.1411133,-0.01708984,-0.5053711
470,0.25,-0.25,1.125,-0.06201172,-0.06982422,1.005859,0.1411133,-0.01708984,-0.5053711
472,-0.1875,-0.9375,0.25,-0.04248047,-0.06982422,1.009766,0.1411133,-0.01708984,-0.5053711
473,0.0625,-1.5,0.375,-0.05029297,-0.06201172,0.9946289,0.1411133,-0.01708984,-0.5053711
475,0.3125,-1.5625,0.0625,-0.06591797,-0.06982422,1.013672,0.1411133,-0.01708984,-0.5053711
476,0.625,-1.75,0,-0.04638672,-0.05810547,1.021484,0.1411133,-0.01708984,-0.5053711
478,0.4375,-1.75,-0.375,-0.05419922,-0.06982422,1.013672,0.1411133,-0.01708984,-0.5078125
479,0.3125,-1.875,-0.0625,-0.05810547,-0.06982422,1.013672,0.1411133,-0.01708984,-0.5078125
481,0.25,-2.0625,-0.625,-0.05029297,-0.07373047,0.9946289,0.1411133,-0.01708984,-0.5078125
482,-0.0625,-1.625,-0.4375,-0.06982422,-0.07373047,1.009766,0.1479492,-0.02392578,-0.5004883
484,-0.375,-2.25,-0.1875,-0.03857422,-0.05419922,0.9907227,0.1479492,-0.02392578,-0.5004883
485,-0.1875,-1.625,-0.3125,-0.07373047,-0.06591797,0.9946289,0.1479492,-0.02392578,-0.5004883
487,0,-2,-0.5625,-0.04638672,-0.07373047,0.9868164,0.1503906,-0.01708984,-0.5126953
488,-0.375,-1.625,-0.8125,-0.04638672,-0.06591797,1.005859,0.1503906,-0.01708984,-0.5126953
490,0.3125,-2.0625,-0.9375,-0.05029297,-0.06201172,0.9985352,0.1503906,-0.01708984,-0.5126953
491,-0.125,-2.125,-0.375,-0.04248047,-0.07373047,0.9985352,0.1503906,-0.01708984,-0.5126953
493,0.3125,-1.8125,-1,-0.05029297,-0.06982422,1.001953,0.1435547,-0.01708984,-0.5078125
494,0.1875,-2.1875,-0.5,-0.06982422,-0.06982422,1.013672,0.1435547,-0.01708984,-0.5078125
496,-1.375,-1.625,-0.6875,-0.06201172,-0.07763672,0.9829102,0.1435547,-0.01708984,-0.5078125
497,-1.625,-1.0625,-0.5625,-0.05810547,-0.06591797,0.9985352,0.1459961,-0.01708984,-0.5102539
499,-1.625,-1.125,-0.375,-0.04638672,-0.09716797,1.001953,0.1459961,-0.01708984,-0.5102539
500,-1.4375,-1.125,-0.9375,-0.05810547,-0.06201172,1.017578,0.1459961,-0.01708984,-0.5102539
502,-1.4375,-1.0625,-1.0625,-0.06591797,-0.05810547,1.001953,0.1547852,-0.01269531,-0.4985352
503,-0.75,0,-1.6875,-0.05810547,-0.05810547,1.013672,0.1547852,-0.01269531,-0.4985352
505,-0.5,-0.0625,-1.25,-0.04248047,-0.07763672,1.001953,0.1547852,-0.01269531,-0.4985352
506,0.375,0,-0.8125,-0.06591797,-0.06982422,1.001953,0.1547852,-0.01269531,-0.4985352
508,-0.4375,0.625,-0.5,-0.05810547,-0.06591797,1.001953,0.1547852,-0.01269531,-0.4985352
509,-0.4375,0.75,-0.875,-0.06982422,-0.08544922,0.9946289,0.1547852,-0.01269531,-0.4985352
511,-0.6875,0.5625,-0.25,-0.05810547,-0.07373047,1.009766,0.1547852,-0.01269531,-0.4985352
512,-0.5625,0.375,-0.3125,-0.05419922,-0.09326172,0.9711914,0.1411133,-0.01708984,-0.4960938
514,0.0625,0.3125,0.4375,-0.02685547,-0.07373047,1.001953,0.1411133,-0.01708984,-0.4960938
515,0,-0.125,0.6875,-0.03857422,-0.09326172,1.001953,0.1411133,-0.01708984,-0.4960938
517,-0.1875,-0.0625,0.25,-0.05810547,-0.08154297,0.9907227,0.1479492,-0.02148438,-0.5053711
518,-0.1875,-0.375,0.25,-0.05029297,-0.09326172,1.005859,0.1479492,-0.02148438,-0.5053711
520,-1.375,-0.8125,0.375,-0.05419922,-0.08154297,1.001953,0.1479492,-0.02148438,-0.5053711
521,-0.9375,0,0.8125,-0.04248047,-0.07763672,0.9946289,0.1479492,-0.01513672,-0.5053711
523,-0.375,-0.1875,0.8125,-0.05419922,-0.07763672,1.005859,0.1479492,-0.01513672,-0.5053711
524,-0.75,-0.25,0.5,-0.03076172,-0.07373047,1.021484,0.1479492,-0.01513672,-0.5053711
526,0.1875,0.125,-0.0625,-0.06591797,-0.05029297,1.017578,0.1479492,-0.01513672,-0.5053711
527,0.8125,-0.375,0.0625,-0.05419922,-0.05810547,0.9829102,0.1479492,-0.01953125,-0.5053711
529,1.3125,-0.5625,-0.75,-0.03076172,-0.06201172,1.009766,0.1479492,-0.01953125,-0.5053711
530,0.8125,-0.125,-0.8125,-0.05419922,-0.06982422,0.9829102,0.1479492,-0.01953125,-0.5053711
532,1.5,-0.375,-0.9375,-0.05419922,-0.06201172,1.009766,0.1479492,-0.01513672,-0.5053711
533,1.375,0.125,-1.375,-0.04638672,-0.05810547,0.9985352,0.1479492,-0.01513672,-0.5053711
535,1.3125,0.4375,-0.875,-0.05810547,-0.05810547,0.9790039,0.1479492,-0.01513672,-0.5053711
536,0.8125,-0.1875,-1.3125,-0.04638672,-0.06591797,0.9868164,0.1411133,-0.01708984,-0.5078125
538,0.5625,0.5625,-1.25,-0.05419922,-0.07373047,0.9985352,0.1411133,-0.01708984,-0.5078125
539,0.5625,0.1875,-0.875,-0.03857422,-0.08544922,0.9907227,0.1411133,-0.01708984,-0.5078125
541,0.625,0,-0.8125,-0.05029297,-0.09326172,0.9633789,0.1411133,-0.01708984,-0.5078125
542,0.4375,-0.125,-0.5,-0.05029297,-0.06982422,1.005859,0.1411133,-0.01708984,-0.5078125
544,0.25,-0.0625,-0.1875,-0.06201172,-0.09326172,0.9868164,0.1411133,-0.01708984,-0.5078125
545,0.3125,0,-0.3125,-0.05810547,-0.08544922,0.9829102,0.1411133,-0.01708984,-0.5078125
547,1.0625,-0.6875,0,-0.06982422,-0.06201172,1.001953,0.1459961,-0.01513672,-0.5004883
548,0.125,-0.625,-0.0625,-0.07373047,-0.07763672,0.9946289,0.1459961,-0.01513672,-0.5004883
550,0.4375,-0.375,0.4375,-0.05810547,-0.06982422,0.9907227,0.1459961,-0.01513672,-0.5004883
551,0.3125,-0.9375,0.0625,-0.05810547,-0.07373047,1.005859,0.1391602,-0.01513672,-0.4936523
553,0.8125,-1,0.9375,-0.06591797,-0.06982422,1.005859,0.1391602,-0.01513672,-0.4936523
554,1.125,-0.9375,0.375,-0.05029297,-0.07373047,1.029297,0.1391602,-0.01513672,-0.4936523
556,0.625,-0.8125,0.5,-0.05029297,-0.07763672,0.9985352,0.1459961,-0.01708984,-0.5078125
557,2,-0.375,1.375,-0.06982422,-0.1166992,1.048828,0.1459961,-0.01708984,-0.5078125
559,3.4375,-0.5625,1.5,-0.06982422,-0.06982422,0.9868164,0.1459961,-0.01708984,-0.5078125
560,2.8125,-0.75,2.0625,-0.07373047,-0.09326172,0.9907227,0.1459961,-0.01708984,-0.5078125
562,2.625,-1.875,2.5625,-0.05419922,-0.09716797,0.9555664,0.1459961,-0.01708984,-0.5078125
563,1.6875,-1.875,2.5625,-0.04638672,-0.09716797,0.9829102,0.1459961,-0.01708984,-0.5078125
565,0.5,-1.5625,1.5,-0.04248047,-0.05029297,1.013672,0.1459961,-0.01708984,-0.5078125
566,0,-2,1.375,-0.06982422,-0.05810547,1.017578,0.1479492,-0.02148438,-0.4985352
568,0.9375,-2.3125,0.6875,-0.06591797,-0.05810547,1.005859,0.1479492,-0.02148438,-0.4985352
569,0.875,-1.6875,-0.6875,-0.05029297,-0.05419922,1.001953,0.1479492,-0.02148438,-0.4985352
571,0.875,-1.9375,-0.875,-0.05419922,-0.04248047,0.9985352,0.1411133,-0.02148438,-0.5078125
572,1.5,-1.625,-1.6875,-0.07763672,-0.04248047,1.021484,0.1411133,-0.02148438,-0.5078125
574,2.8125,-2,-2.1875,-0.05029297,-0.05029297,1.021484,0.1411133,-0.02148438,-0.5078125
575,2.1875,-1.375,-2.3125,-0.05419922,-0.06201172,1.013672,0.1411133,-0.02148438,-0.5078125
577,1.5,-1.25,-2.1875,-0.07373047,-0.06982422,1.001953,0.1411133,-0.02148438,-0.5078125
578,1.5,-0.6875,-1.4375,-0.06201172,-0.09326172,1.001953,0.1411133,-0.02148438,-0.5078125
580,0,-1.125,-1.0625,-0.04638672,-0.08154297,0.9633789,0.1411133,-0.02148438,-0.5078125
581,-1.125,-0.6875,-1.375,-0.05029297,-0.09326172,0.9829102,0.1479492,-0.01513672,-0.5053711
583,-0.9375,-1.125,-1.3125,-0.06591797,-0.08154297,0.9868164,0.1479492,-0.01513672,-0.5053711
584,-1,-1.375,-1,-0.05029297,-0.07373047,0.9907227,0.1479492,-0.01513672,-0.5053711
586,-0.4375,-0.75,-1.4375,-0.05029297,-0.08154297,1.013672,0.1459961,-0.008300781,-0.5102539
587,0.5625,-0.75,-1.6875,-0.04248047,-0.1010742,1.001953,0.1459961,-0.008300781,-0.5102539
589,1,-0.375,-1,-0.05029297,-0.07763672,0.9985352,0.1459961,-0.008300781,-0.5102539
590,0,-0.4375,-0.375,-0.04638672,-0.08154297,0.9868164,0.1391602,-0.01708984,-0.5004883
592,-0.3125,-1,-0.875,-0.05810547,-0.09326172,0.9946289,0.1391602,-0.01708984,-0.5004883
593,-0.3125,-0.375,-0.375,-0.06201172,-0.06591797,1.013672,0.1391602,-0.01708984,-0.5004883
595,-0.125,-0.1875,-0.375,-0.04248047,-0.06591797,1.017578,0.1391602,-0.01708984,-0.5004883
596,-0.1875,-0.125,0,-0.04638672,-0.06982422,0.9946289,0.1411133,-0.02587891,-0.4985352
598,0.1875,0,-0.625,-0.04638672,-0.06201172,1.013672,0.1411133,-0.02587891,-0.4985352
599,0.1875,-0.1875,0.25,-0.05029297,-0.07763672,1.005859,0.1411133,-0.02587891,-0.4985352
601,-0.4375,-0.125,-0.125,-0.03466797,-0.06201172,1.005859,0.1459961,-0.02392578,-0.5004883
602,-0.25,0.25,-0.4375,-0.05810547,-0.09326172,0.9868164,0.1459961,-0.02392578,-0.5004883
604,-0.4375,0.4375,-0.375,-0.04638672,-0.07373047,1.001953,0.1459961,-0.02392578,-0.5004883
605,-0.4375,0.3125,-0.25,-0.04248047,-0.08544922,0.9985352,0.1459961,-0.01513672,-0.5053711
607,-0.25,0,-0.5,-0.05029297,-0.07763672,0.9868164,0.1459961,-0.01513672,-0.5053711
608,-0.875,0.25,-0.625,-0.05810547,-0.05810547,1.017578,0.1459961,-0.01513672,-0.5053711
610,0.125,0,-1.375,-0.06591797,-0.06591797,1.001953,0.1459961,-0.01513672,-0.5053711
611,-0.4375,0,-1.4375,-0.04248047,-0.08154297,0.9985352,0.1459961,-0.01513672,-0.5053711
613,-0.4375,0.3125,-1.1875,-0.06982422,-0.09326172,1.001953,0.1459961,-0.01513672,-0.5053711
614,-0.375,0.5,-1.4375,-0.03857422,-0.06591797,0.9946289,0.1459961,-0.01513672,-0.5053711
616,-0.0625,0.875,-1.5,-0.05810547,-0.05810547,1.001953,0.1435547,-0.01513672,-0.5078125
617,0.5,0.375,-2.125,-0.05810547,-0.08154297,0.9711914,0.1435547,-0.01513672,-0.5078125
619,1.375,1.1875,-2,-0.05810547,-0.08154297,1.013672,0.1435547,-0.01513672,-0.5078125
620,1.0625,1.1875,-2.5625,-0.05810547,-0.07373047,0.9946289,0.1435547,-0.01708984,-0.5078125
622,1.625,1.0625,-2.5,-0.04248047,-0.06591797,1.001953,0.1435547,-0.01708984,-0.5078125
623,0.9375,1.375,-2.5625,-0.03857422,-0.08544922,1.017578,0.1435547,-0.01708984,-0.5078125
625,0.625,1.1875,-2.75,-0.05419922,-0.06201172,0.9829102,0.1479492,-0.01708984,-0.5053711
626,0.9375,1.3125,-2.25,-0.04248047,-0.05029297,0.9907227,0.1479492,-0.01708984,-0.5053711
628,1.375,0.5625,-2.125,-0.03857422,-0.06201172,1.013672,0.1479492,-0.01708984,-0.5053711
629,1.4375,0.125,-2.125,-0.03076172,-0.06591797,1.009766,0.1479492,-0.01708984,-0.5053711
631,0.75,0.0625,-1.8125,-0.06591797,-0.09326172,0.9946289,0.1435547,-0.02587891,-0.5004883
632,-0.0625,-0.3125,-1.375,-0.05419922,-0.07373047,1.005859,0.1435547,-0.02587891,-0.5004883
634,0.5625,-0.375,-1.5,-0.05029297,-0.05419922,1.021484,0.1435547,-0.02587891,-0.5004883
635,0.125,-1.25,-1.125,-0.04248047,-0.05419922,0.9985352,0.1523438,-0.01513672,-0.5102539
637,-0.5,-0.9375,-1.625,-0.03857422,-0.08544922,0.9985352,0.1523438,-0.01513672,-0.5102539
638,-0.3125,-0.8125,-1.0625,-0.05419922,-0.07373047,0.9868164,0.1523438,-0.01513672,-0.5102539
640,-0.0625,-0.8125,-0.5625,-0.03076172,-0.08154297,1.005859,0.1435547,-0.01708984,-0.4985352
641,-0.375,-1.1875,-0.5,-0.04638672,-0.06982422,1.021484,0.1435547,-0.01708984,-0.4985352
643,-0.75,-0.875,-0.875,-0.05029297,-0.06201172,0.9985352,0.1435547,-0.01708984,-0.4985352
644,-0.9375,-0.625,-0.375,-0.05419922,-0.09326172,0.9946289,0.1435547,-0.01708984,-0.4985352
646,-0.8125,-0.75,-0.0625,-0.05810547,-0.07763672,0.9907227,0.1435547,-0.01708984,-0.4985352
647,-0.6875,-0.4375,0,-0.03076172,-0.05419922,0.9946289,0.1435547,-0.01708984,-0.4985352
649,-0.8125,-1.0625,0.1875,-0.04638672,-0.06982422,0.9946289,0.1435547,-0.01708984,-0.4985352
650,-1.125,-1.5625,-0.375,-0.05810547,-0.06591797,0.9907227,0.1391602,-0.02148438,-0.4985352
652,-1.6875,-1.8125,-1.25,-0.04638672,-0.07763672,0.9868164,0.1391602,-0.02148438,-0.4985352
653,-1.6875,-2.0625,-1.25,-0.05029297,-0.09326172,0.9985352,0.1391602,-0.02148438,-0.4985352
655,-1.1875,-1.4375,-0.875,-0.04248047,-0.06982422,0.9907227,0.1523438,-0.01708984,-0.4960938
656,-1,-1.6875,-1.25,-0.04248047,-0.09326172,1.001953,0.1523438,-0.01708984,-0.4960938
658,-0.375,-0.9375,-1.6875,-0.04248047,-0.08544922,1.005859,0.1523438,-0.01708984,-0.4960938
659,-0.6875,-0.5,-2.125,-0.07373047,-0.07763672,1.005859,0.1503906,-0.01953125,-0.5078125
661,0,0.3125,-2.25,-0.05419922,-0.08154297,0.9907227,0.1503906,-0.01953125,-0.5078125
662,-0.375,0.75,-1.375,-0.04638672,-0.09716797,0.9985352,0.1503906,-0.01953125,-0.5078125
664,-0.0625,1.5625,-1.4375,-0.01123047,-0.06201172,0.9946289,0.1503906,-0.01953125,-0.5078125
665,0.125,1.875,-1.875,-0.04638672,-0.07763672,0.9907227,0.1479492,-0.02148438,-0.4985352
667,0,2.8125,-0.5625,-0.03076172,-0.06591797,0.9868164,0.1479492,-0.02148438,-0.4985352
668,-0.3125,3.125,-0.375,-0.06591797,-0.09326172,0.9946289,0.1479492,-0.02148438,-0.4985352
670,0.8125,4.375,0,-0.03857422,-0.09326172,0.9868164,0.1435547,-0.01953125,-0.4985352
671,0.5625,4.4375,0.625,-0.04248047,-0.06982422,0.9946289,0.1435547,-0.01953125,-0.4985352
673,1.5625,4.125,0.6875,-0.03076172,-0.07763672,1.001953,0.1435547,-0.01953125,-0.4985352
674,2.6875,3.6875,0.8125,-0.03466797,-0.06591797,1.013672,0.1479492,-0.01074219,-0.5151367
676,4,2.5,2.5625,-0.06591797,-0.04248047,1.005859,0.1479492,-0.01074219,-0.5151367
677,6.125,1.8125,1.6875,-0.03466797,-0.05029297,1.048828,0.1479492,-0.01074219,-0.5151367
679,4.625,3.6875,0.4375,-0.03076172,-0.06982422,0.9829102,0.1479492,-0.01074219,-0.5151367
680,2.4375,3.9375,0.625,-0.06591797,-0.09716797,0.9946289,0.1479492,-0.01074219,-0.5151367
682,2.5,3.25,1,-0.04248047,-0.09326172,0.9790039,0.1479492,-0.01074219,-0.5151367
683,2.5,3.9375,0.6875,-0.05029297,-0.05810547,0.9985352,0.1479492,-0.01074219,-0.5151367
685,2.4375,3.6875,0.5625,-0.04638672,-0.07373047,0.9946289,0.1435547,-0.01269531,-0.5078125
686,3.75,3.5625,0.3125,-0.06982422,-0.05810547,1.013672,0.1435547,-0.01269531,-0.5078125
688,3.625,2.625,0.125,-0.06201172,-0.06201172,1.005859,0.1435547,-0.01269531,-0.5078125
689,4.0625,3.125,0.3125,-0.06201172,-0.07763672,1.033203,0.1411133,-0.02587891,-0.5102539
691,4.75,2.5625,-0.0625,-0.05810547,-0.07373047,1.001953,0.1411133,-0.02587891,-0.5102539
692,5.3125,1.875,-0.25,-0.04638672,-0.09326172,1.017578,0.1411133,-0.02587891,-0.5102539
694,5.3125,2.0625,0.25,-0.05419922,-0.07763672,0.9711914,0.1435547,-0.01953125,-0.5078125
695,3.8125,1.125,0.3125,-0.05810547,-0.06591797,0.9829102,0.1435547,-0.01953125,-0.5078125
697,4.375,1,0.625,-0.06591797,-0.09326172,0.9985352,0.1435547,-0.01953125,-0.5078125
698,3.875,0.625,0.875,-0.03857422,-0.08154297,0.9907227,0.1435547,-0.01953125,-0.5078125
700,3.1875,0.4375,0.9375,-0.06982422,-0.09326172,0.9946289,0.1503906,-0.01708984,-0.5029297
701,1.8125,-0.1875,1.1875,-0.05029297,-0.06982422,0.9790039,0.1503906,-0.01708984,-0.5029297
703,0.4375,-0.3125,1.1875,-0.04638672,-0.06591797,1.005859,0.1503906,-0.01708984,-0.5029297
704,0.125,-0.875,1.3125,-0.06201172,-0.06982422,1.009766,0.1459961,-0.01074219,-0.4985352
706,0.5625,-0.875,0.625,-0.03857422,-0.06982422,1.009766,0.1459961,-0.01074219,-0.4985352
707,0.375,-1.5625,0.625,-0.05419922,-0.06201172,0.9985352,0.1459961,-0.01074219,-0.4985352
709,0,-1.4375,0.25,-0.04248047,-0.05810547,0.9946289,0.1479492,-0.01269531,-0.5053711
710,-0.25,-1.75,-0.1875,-0.05029297,-0.05029297,1.009766,0.1479492,-0.01269531,-0.5053711
712,0.3125,-2.25,-0.25,-0.06591797,-0.06201172,1.025391,0.1479492,-0.01269531,-0.5053711
713,0.1875,-2.5625,0.0625,-0.04248047,-0.06591797,1.009766,0.1479492,-0.01269531,-0.5053711
715,0.25,-3,0,-0.05810547,-0.06982422,1.009766,0.1479492,-0.01269531,-0.5053711
716,0.375,-4.0625,-0.3125,-0.05029297,-0.08544922,0.9790039,0.1479492,-0.01269531,-0.5053711
718,0.4375,-3.9375,0.25,-0.04248047,-0.06201172,0.9946289,0.1479492,-0.01269531,-0.5053711
719,0,-4.25,0.125,-0.06591797,-0.06201172,0.9985352,0.1391602,-0.01953125,-0.5102539
721,0.25,-4.125,0.3125,-0.05810547,-0.05419922,1.001953,0.1391602,-0.01953125,-0.5102539
722,0.6875,-3.1875,0.4375,-0.05419922,-0.08154297,1.029297,0.1391602,-0.01953125,-0.5102539
724,0.5625,-2.9375,0.8125,-0.05029297,-0.05810547,1.009766,0.1459961,-0.02587891,-0.5078125
725,0.8125,-2.875,1.125,-0.06982422,-0.06982422,1.037109,0.1459961,-0.02587891,-0.5078125
727,0.75,-1.8125,1.5625,-0.05419922,-0.06201172,0.9946289,0.1459961,-0.02587891,-0.5078125
728,1.125,-1,1.3125,-0.03076172,-0.05810547,1.013672,0.1411133,-0.02587891,-0.5004883
730,0.25,-0.6875,1.3125,-0.04248047,-0.06201172,1.013672,0.1411133,-0.02587891,-0.5004883
731,-0.5,0.625,1.5625,-0.04638672,-0.04638672,1.021484,0.1411133,-0.02587891,-0.5004883
733,-0.75,0.875,1.375,-0.04248047,-0.06201172,1.013672,0.1411133,-0.02587891,-0.5004883
734,-0.5625,1.625,1.375,-0.05419922,-0.05419922,1.017578,0.1411133,-0.03271484,-0.5078125
736,-0.125,1.875,1.3125,-0.04638672,-0.04248047,1.013672,0.1411133,-0.03271484,-0.5078125
737,0.6875,2.1875,0.3125,-0.05810547,-0.04248047,1.017578,0.1411133,-0.03271484,-0.5078125
739,1.6875,3.3125,0.0625,-0.04638672,-0.06591797,1.029297,0.1459961,-0.02587891,-0.5004883
740,2.1875,4.0625,0.1875,-0.04248047,-0.04248047,1.033203,0.1459961,-0.02587891,-0.5004883
742,2.5625,4.3125,-0.0625,-0.05419922,-0.05029297,1.013672,0.1459961,-0.02587891,-0.5004883
743,3.375,4.5625,-0.5625,-0.06591797,-0.06201172,1.013672,0.1435547,-0.01269531,-0.5102539
745,3.3125,5.125,-0.3125,-0.05419922,-0.05810547,0.9907227,0.1435547,-0.01269531,-0.5102539
746,2.6875,5.4375,-0.5,-0.05419922,-0.06591797,1.009766,0.1435547,-0.01269531,-0.5102539
748,1.9375,5.625,-0.375,-0.06201172,-0.09326172,0.9985352,0.1435547,-0.01269531,-0.5102539
749,1.75,5.5625,-0.25,-0.05029297,-0.07373047,1.017578,0.1435547,-0.01269531,-0.5102539
751,0.9375,5,-0.3125,-0.05419922,-0.05810547,0.9985352,0.1435547,-0.01269531,-0.5102539
752,1.375,4.5625,0.125,-0.05029297,-0.06982422,0.9907227,0.1435547,-0.01269531,-0.5102539
754,1.5625,4.75,0.9375,-0.03076172,-0.06591797,1.009766,0.1435547,-0.01513672,-0.5004883
755,0.625,4.0625,0.375,-0.03076172,-0.06982422,1.001953,0.1435547,-0.01513672,-0.5004883
757,1.375,3.125,0.125,-0.05029297,-0.05810547,0.9985352,0.1435547,-0.01513672,-0.5004883
758,1.3125,2.625,1,-0.03076172,-0.05419922,1.005859,0.1479492,-0.03027344,-0.5126953
760,1.9375,2.375,0.9375,-0.04638672,-0.05029297,1.013672,0.1479492,-0.03027344,-0.5126953
761,1.5,1.125,0.625,-0.04248047,-0.07763672,0.9985352,0.1479492,-0.03027344,-0.5126953
763,0.6875,1.125,0.5,-0.03857422,-0.07373047,0.9790039,0.1523438,-0.01708984,-0.4936523
764,0.0625,0.375,0.6875,-0.05810547,-0.08935547,0.9907227,0.1523438,-0.01708984,-0.4936523
766,-1.1875,0.4375,0.5625,-0.06982422,-0.09326172,0.9829102,0.1523438,-0.01708984,-0.4936523
767,-1.125,0.1875,1.4375,-0.05810547,-0.07763672,0.9907227,0.1523438,-0.01708984,-0.4936523
769,-1.125,0.125,1.0625,-0.05029297,-0.06591797,0.9868164,0.1435547,-0.01708984,-0.5053711
770,-0.6875,-0.1875,0.3125,-0.05419922,-0.04248047,1.005859,0.1435547,-0.01708984,-0.5053711
772,-0.25,-0.3125,0.0625,-0.05029297,-0.07763672,1.029297,0.1435547,-0.01708984,-0.5053711
775,-0.6875,-0.125,0,-0.05810547,-0.05029297,0.9946289,0.1435547,-0.02392578,-0.5053711
777,-1,0,0,-0.03076172,-0.06201172,1.001953,0.1435547,-0.02392578,-0.5053711
778,-0.375,0.875,-0.1875,-0.05810547,-0.05810547,0.9907227,0.1435547,-0.02392578,-0.5053711
780,-0.3125,0.625,-0.3125,-0.03857422,-0.07373047,1.017578,0.1503906,-0.01708984,-0.5053711
781,-0.1875,0.5,-0.375,-0.05419922,-0.06591797,1.009766,0.1503906,-0.01708984,-0.5053711
783,0.25,0.6875,-0.3125,-0.07373047,-0.09326172,1.009766,0.1503906,-0.01708984,-0.5053711
784,0.9375,0.1875,-0.25,-0.05419922,-0.06201172,1.033203,0.1503906,-0.01708984,-0.5053711
786,0.75,0.375,-0.625,-0.06591797,-0.07763672,1.005859,0.1503906,-0.01708984,-0.5053711
787,0.9375,-0.6875,0.375,-0.05419922,-0.05029297,0.9985352,0.1503906,-0.01708984,-0.5053711
789,0.875,-0.0625,0.125,-0.05419922,-0.07763672,0.9907227,0.1503906,-0.01708984,-0.5053711
790,0.625,0.0625,0.125,-0.06201172,-0.07373047,1.013672,0.1479492,-0.01953125,-0.5029297
792,0.25,-0.375,0.5,-0.07373047,-0.06591797,1.005859,0.1479492,-0.01953125,-0.5029297
793,1,-0.1875,0.625,-0.05029297,-0.07373047,1.017578,0.1479492,-0.01953125,-0.5029297
795,0.75,-0.75,1.375,-0.05029297,-0.05810547,1.001953,0.1503906,-0.02587891,-0.4887695
796,1.0625,-1.625,0.5625,-0.06591797,-0.06591797,1.005859,0.1503906,-0.02587891,-0.4887695
798,0.875,-1.25,0.8125,-0.04638672,-0.08154297,0.9985352,0.1503906,-0.02587891,-0.4887695
799,0.5625,-1.4375,0.25,-0.04248047,-0.04248047,1.001953,0.1479492,-0.02148438,-0.5004883
801,0.375,-1.0625,0,-0.05810547,-0.05419922,1.013672,0.1479492,-0.02148438,-0.5004883
802,0.5625,-1.375,0.375,-0.05029297,-0.07373047,1.009766,0.1479492,-0.02148438,-0.5004883
804,0.75,-1.375,0.375,-0.06591797,-0.07373047,1.013672,0.1479492,-0.02148438,-0.5004883
805,0.1875,-0.6875,0.6875,-0.04638672,-0.05029297,1.029297,0.1411133,-0.01513672,-0.5029297
807,0.1875,-1,0.8125,-0.06201172,-0.09326172,0.9985352,0.1411133,-0.01513672,-0.5029297
808,-0.8125,-0.25,0.9375,-0.06201172,-0.04638672,1.005859,0.1411133,-0.01513672,-0.5029297
810,-2.125,-0.1875,1.1875,-0.06982422,-0.07763672,1.009766,0.1479492,-0.01953125,-0.5004883
811,-2.75,0.875,1.6875,-0.06591797,-0.06591797,1.005859,0.1479492,-0.01953125,-0.5004883
813,-2.3125,0.25,1.5,-0.05419922,-0.08154297,1.029297,0.1479492,-0.01953125,-0.5004883
814,-2.8125,0.4375,1.8125,-0.04638672,-0.05029297,1.013672,0.1435547,-0.01708984,-0.5004883
816,-3.4375,1.0625,1.5625,-0.04638672,-0.06201172,0.9946289,0.1435547,-0.01708984,-0.5004883
817,-4.5625,1.6875,1.5,-0.06591797,-0.06591797,1.005859,0.1435547,-0.01708984,-0.5004883
819,-4.6875,1.3125,2.125,-0.06591797,-0.08154297,0.9829102,0.1435547,-0.01708984,-0.5004883
820,-4.5,0.5,3,-0.06982422,-0.09326172,1.001953,0.1435547,-0.01708984,-0.5004883
822,-2.4375,-0.875,4.625,-0.04638672,-0.05029297,1.029297,0.1435547,-0.01708984,-0.5004883
823,-1.9375,-0.375,3.125,-0.03076172,-0.04248047,1.001953,0.1435547,-0.01708984,-0.5004883
825,-4.3125,0.375,2.0625,-0.06591797,-0.07763672,0.9868164,0.1479492,-0.02392578,-0.5102539
826,-5.5625,-1.3125,2.1875,-0.05810547,-0.06591797,0.9868164,0.1479492,-0.02392578,-0.5102539
828,-6.8125,-1.125,2.1875,-0.03076172,-0.07763672,1.017578,0.1479492,-0.02392578,-0.5102539
829,-6.75,-0.4375,3.25,-0.05419922,-0.08544922,1.013672,0.1479492,-0.01513672,-0.5053711
831,-5.9375,-1.125,3.3125,-0.05419922,-0.06591797,1.013672,0.1479492,-0.01513672,-0.5053711
832,-5.6875,-0.3125,3.0625,-0.04638672,-0.04638672,1.029297,0.1479492,-0.01513672,-0.5053711
834,-5.125,-1.125,1.3125,-0.05810547,-0.05810547,1.021484,0.1459961,-0.02148438,-0.5102539
835,-4.5625,-0.4375,1.375,-0.06591797,-0.06591797,1.041016,0.1459961,-0.02148438,-0.5102539
837,-3.75,-1.3125,2.1875,-0.08544922,-0.07373047,0.9946289,0.1459961,-0.02148438,-0.5102539
838,-4.25,-0.9375,1.6875,-0.05029297,-0.06591797,1.005859,0.1459961,-0.02148438,-0.5102539
840,-3.625,0,1.125,-0.05419922,-0.06982422,1.001953,0.1479492,-0.01708984,-0.5053711
841,-2.5,-0.8125,1.8125,-0.06591797,-0.09326172,0.9985352,0.1479492,-0.01708984,-0.5053711
843,-2.125,-0.875,1.25,-0.04638672,-0.06201172,1.001953,0.1479492,-0.01708984,-0.5053711
844,-2,-0.625,1.0625,-0.05419922,-0.07763672,1.005859,0.1459961,-0.02587891,-0.5126953
846,-1.6875,-1.4375,1.1875,-0.05810547,-0.07373047,1.005859,0.1459961,-0.02587891,-0.5126953
847,-1.5625,-1.6875,1.375,-0.06591797,-0.09326172,1.001953,0.1459961,-0.02587891,-0.5126953
849,-1.625,-1.6875,0.8125,-0.05419922,-0.06591797,0.9985352,0.1479492,-0.01953125,-0.5102539
850,-1.75,-0.5,0,-0.05810547,-0.06591797,1.021484,0.1479492,-0.01953125,-0.5102539
852,-1.5625,0.3125,0.25,-0.04638672,-0.05029297,0.9946289,0.1479492,-0.01953125,-0.5102539
853,-0.875,0.625,0.5625,-0.06591797,-0.05029297,0.9907227,0.1479492,-0.01953125,-0.5102539
855,-1.375,0.9375,-0.125,-0.05029297,-0.06982422,0.9946289,0.1479492,-0.01953125,-0.5102539
856,-1.1875,1.4375,-1.125,-0.05810547,-0.06982422,1.025391,0.1479492,-0.01953125,-0.5102539
858,-1.0625,1.4375,-0.625,-0.06591797,-0.08544922,0.9946289,0.1479492,-0.01953125,-0.5102539
859,-0.6875,2.0625,-0.5625,-0.05810547,-0.05810547,1.001953,0.1479492,-0.01953125,-0.5053711
861,0.25,1.625,-0.125,-0.05029297,-0.06201172,1.009766,0.1479492,-0.01953125,-0.5053711
862,0.5625,1.75,-0.8125,-0.05029297,-0.07763672,1.005859,0.1479492,-0.01953125,-0.5053711
864,1.1875,1.5625,-0.3125,-0.07763672,-0.06591797,1.021484,0.1391602,-0.01513672,-0.4960938
865,1.1875,1.5625,-0.9375,-0.06201172,-0.07373047,1.001953,0.1391602,-0.01513672,-0.4960938
867,-0.0625,2,-0.625,-0.06591797,-0.07763672,0.9868164,0.1391602,-0.01513672,-0.4960938
868,-1.3125,2.25,0.125,-0.08154297,-0.08544922,0.9907227,0.1479492,-0.01269531,-0.5078125
870,-2.6875,2.4375,0.375,-0.06201172,-0.09326172,0.9907227,0.1479492,-0.01269531,-0.5078125
871,-2.1875,1.8125,0.5,-0.05810547,-0.07373047,0.9829102,0.1479492,-0.01269531,-0.5078125
873,-2.375,1.75,0.4375,-0.05029297,-0.05810547,0.9868164,0.1479492,-0.01269531,-0.5078125
874,-0.9375,1.0625,0.25,-0.06591797,-0.05419922,0.9985352,0.1459961,-0.01513672,-0.5102539
876,-0.3125,0.125,0.0625,-0.04638672,-0.08544922,0.9790039,0.1459961,-0.01513672,-0.5102539
877,0,0.4375,0.125,-0.03076172,-0.08154297,0.9985352,0.1459961,-0.01513672,-0.5102539
879,1,-0.1875,-0.5,-0.05029297,-0.07763672,0.9790039,0.1459961,-0.02392578,-0.4936523
880,0.625,0.125,-0.25,-0.05029297,-0.07763672,1.029297,0.1459961,-0.02392578,-0.4936523
882,0.1875,-0.25,-0.125,-0.05810547,-0.09326172,0.9946289,0.1459961,-0.02392578,-0.4936523
883,0,-0.1875,-0.375,-0.05029297,-0.06591797,1.001953,0.1459961,-0.01708984,-0.5102539
885,-0.125,-0.4375,-0.1875,-0.05810547,-0.06591797,0.9985352,0.1459961,-0.01708984,-0.5102539
886,-1.5625,-0.3125,-0.625,-0.06591797,-0.09326172,1.009766,0.1459961,-0.01708984,-0.5102539
888,-1.6875,-0.625,-0.375,-0.04638672,-0.09326172,0.9985352,0.1459961,-0.01708984,-0.5102539
889,-1.6875,-0.0625,-0.5,-0.04638672,-0.06201172,0.9985352,0.1459961,-0.01708984,-0.5102539
891,-0.375,-0.3125,-0.875,-0.03076172,-0.05810547,1.001953,0.1459961,-0.01708984,-0.5102539
892,-0.1875,0.6875,-1,-0.07763672,-0.07373047,1.013672,0.1459961,-0.01708984,-0.5102539
894,0.5,0,-0.625,-0.05419922,-0.05419922,1.001953,0.1523438,-0.01708984,-0.5078125
895,0.4375,0.3125,-0.5625,-0.05419922,-0.08544922,1.009766,0.1523438,-0.01708984,-0.5078125
897,1.8125,0.3125,-1.125,-0.06591797,-0.06591797,1.009766,0.1523438,-0.01708984,-0.5078125
898,2.0625,0.3125,-0.8125,-0.06201172,-0.05810547,0.9750977,0.1479492,-0.01953125,-0.4960938
900,2.25,0.5,-1.125,-0.05419922,-0.06201172,0.9946289,0.1479492,-0.01953125,-0.4960938
901,1.875,0.0625,-1.0625,-0.06591797,-0.07373047,0.9946289,0.1479492,-0.01953125,-0.4960938
903,1.4375,-0.125,-1.1875,-0.06591797,-0.1010742,0.9790039,0.1459961,-0.02148438,-0.5102539
904,1.1875,-0.5,-1.0625,-0.05810547,-0.07373047,0.9750977,0.1459961,-0.02148438,-0.5102539
906,0.9375,-0.375,0,-0.06982422,-0.06591797,0.9907227,0.1459961,-0.02148438,-0.5102539
907,1.5,0.125,-0.8125,-0.05029297,-0.07373047,1.009766,0.1459961,-0.02148438,-0.5102539
909,0.8125,-0.875,-0.4375,-0.06982422,-0.06982422,0.9985352,0.1459961,-0.008300781,-0.5102539
910,1.6875,-0.125,-0.25,-0.06591797,-0.06201172,1.005859,0.1459961,-0.008300781,-0.5102539
912,1.5,-0.8125,-0.5,-0.04638672,-0.09326172,0.9829102,0.1459961,-0.008300781,-0.5102539
913,2.0625,-0.6875,-0.375,-0.05029297,-0.07763672,1.013672,0.1503906,-0.01953125,-0.4985352
915,1.625,-0.625,0,-0.05810547,-0.06201172,0.9946289,0.1503906,-0.01953125,-0.4985352
916,1.25,-0.8125,0.25,-0.04248047,-0.09326172,1.009766,0.1503906,-0.01953125,-0.4985352
918,1.6875,-1.0625,0.1875,-0.05029297,-0.05419922,0.9985352,0.1479492,-0.01953125,-0.5029297
919,1.0625,-1.0625,0,-0.05029297,-0.06982422,1.001953,0.1479492,-0.01953125,-0.5029297
921,0.375,-0.125,0,-0.08154297,-0.1010742,0.9907227,0.1479492,-0.01953125,-0.5029297
922,-0.8125,-0.25,0.5625,-0.05029297,-0.08154297,0.9907227,0.1459961,-0.01269531,-0.5053711
924,-0.875,0.0625,0.5,-0.04248047,-0.09716797,1.009766,0.1459961,-0.01269531,-0.5053711
925,-1.8125,0.1875,0.5625,-0.07373047,-0.05029297,1.021484,0.1459961,-0.01269531,-0.5053711
927,-1.125,0.3125,0.4375,-0.05810547,-0.08544922,0.9985352,0.1459961,-0.01269531,-0.5053711
928,-0.8125,0.25,-0.125,-0.06982422,-0.06591797,0.9907227,0.1347656,-0.008300781,-0.5029297
930,-0.4375,0.375,-0.4375,-0.05419922,-0.06982422,1.025391,0.1347656,-0.008300781,-0.5029297
931,-1.3125,0.3125,-0.625,-0.06591797,-0.06591797,1.001953,0.1347656,-0.008300781,-0.5029297
933,-0.9375,0.25,-0.75,-0.08154297,-0.07763672,0.9985352,0.1503906,-0.02832031,-0.5102539
934,-1,0.0625,-0.9375,-0.04638672,-0.07373047,0.9985352,0.1503906,-0.02832031,-0.5102539
936,-0.9375,-0.4375,-1.5625,-0.05810547,-0.05810547,1.005859,0.1503906,-0.02832031,-0.5102539
937,-1.1875,-0.3125,-1.0625,-0.05029297,-0.09326172,0.9946289,0.1459961,-0.01269531,-0.5151367
939,-1.4375,-0.0625,-1.5,-0.06201172,-0.06201172,1.029297,0.1459961,-0.01269531,-0.5151367
940,-0.5625,-1.125,-1.75,-0.05419922,-0.06201172,1.001953,0.1459961,-0.01269531,-0.5151367
942,0.0625,-1,-2,-0.04638672,-0.08154297,1.013672,0.1459961,-0.01269531,-0.5151367
943,0.6875,-1.4375,-1.4375,-0.06201172,-0.07373047,1.013672,0.1459961,-0.01269531,-0.5102539
945,0,-1.875,-1.8125,-0.05419922,-0.06201172,1.009766,0.1459961,-0.01269531,-0.5102539
946,0,-1.3125,-1.0625,-0.07373047,-0.09326172,1.017578,0.1459961,-0.01269531,-0.5102539
948,-0.875,-2,-1.0625,-0.07373047,-0.08544922,0.9868164,0.1367188,-0.01953125,-0.5126953
949,-1.1875,-2.0625,-0.6875,-0.08154297,-0.09326172,1.001953,0.1367188,-0.01953125,-0.5126953
951,-0.8125,-2.9375,-0.3125,-0.06982422,-0.07763672,1.013672,0.1367188,-0.01953125,-0.5126953
952,-0.0625,-3.125,-0.125,-0.04638672,-0.06591797,1.009766,0.1435547,-0.01074219,-0.5102539
954,0.6875,-3.8125,0.4375,-0.05419922,-0.08154297,1.001953,0.1435547,-0.01074219,-0.5102539
955,0.6875,-4.4375,0.25,-0.04638672,-0.08154297,1.005859,0.1435547,-0.01074219,-0.5102539
957,0,-4.5,0.9375,-0.07763672,-0.06982422,1.013672,0.1435547,-0.01074219,-0.5102539
958,0.625,-5.5625,1,-0.05810547,-0.09326172,1.001953,0.1435547,-0.01074219,-0.5102539
960,-0.5625,-5.0625,0.4375,-0.06591797,-0.06591797,0.9907227,0.1435547,-0.01074219,-0.5102539
961,-1.25,-4.8125,0.625,-0.05419922,-0.05810547,0.9750977,0.1435547,-0.01074219,-0.5102539
963,-2.25,-5.1875,0.625,-0.06591797,-0.06982422,1.001953,0.1411133,-0.01513672,-0.5053711
964,-1.875,-5.1875,0.25,-0.05029297,-0.07763672,0.9946289,0.1411133,-0.01513672,-0.5053711
966,-1.6875,-5,0.5,-0.04248047,-0.06201172,0.9985352,0.1411133,-0.01513672,-0.5053711
967,-1,-4.8125,0.1875,-0.06591797,-0.06591797,0.9946289,0.1479492,-0.01074219,-0.4985352
969,-1.0625,-4.75,0.0625,-0.06201172,-0.07763672,0.9985352,0.1479492,-0.01074219,-0.4985352
970,-0.75,-4.375,-0.3125,-0.05810547,-0.07373047,0.9946289,0.1479492,-0.01074219,-0.4985352
972,-0.5625,-3.9375,-0.4375,-0.03076172,-0.07373047,0.9985352,0.1479492,-0.01074219,-0.5078125
973,-0.625,-3.1875,-0.8125,-0.04638672,-0.07763672,1.009766,0.1479492,-0.01074219,-0.5078125
975,-1.125,-2.4375,-0.375,-0.05419922,-0.08154297,1.013672,0.1479492,-0.01074219,-0.5078125
976,-0.4375,-1.875,-0.5,-0.06201172,-0.08544922,1.013672,0.1479492,-0.01074219,-0.5078125
978,-0.4375,-1.375,-0.25,-0.04638672,-0.06982422,0.9907227,0.1479492,-0.01074219,-0.5078125
979,-0.0625,-0.5625,0.25,-0.05810547,-0.06591797,1.021484,0.1479492,-0.01074219,-0.5078125
981,-0.0625,0.4375,0.25,-0.03076172,-0.05810547,1.009766,0.1479492,-0.01074219,-0.5078125
982,0.5,0.875,0,-0.05029297,-0.07373047,1.009766,0.1411133,-0.01269531,-0.5053711
984,1,0.875,0.5625,-0.04248047,-0.06591797,1.013672,0.1411133,-0.01269531,-0.5053711
985,0.875,1.3125,0.3125,-0.03076172,-0.06982422,0.9633789,0.1411133,-0.01269531,-0.5053711
987,1.1875,2.3125,0.75,-0.04248047,-0.09326172,1.005859,0.1459961,-0.02392578,-0.5053711
988,0.6875,2.4375,1.9375,-0.02685547,-0.07373047,0.9946289,0.1459961,-0.02392578,-0.5053711
990,1.6875,3.1875,0.6875,-0.05419922,-0.09326172,0.9946289,0.1459961,-0.02392578,-0.5053711
991,1.9375,3.4375,1.375,-0.05029297,-0.07763672,1.017578,0.1547852,-0.01953125,-0.5078125
993,1.0625,3.4375,1.1875,-0.03857422,-0.06982422,0.9750977,0.1547852,-0.01953125,-0.5078125
994,1.0625,3.625,0.75,-0.05419922,-0.1049805,0.9946289,0.1547852,-0.01953125,-0.5078125
996,1.125,3.875,0.5,-0.04638672,-0.09326172,0.9829102,0.1547852,-0.01953125,-0.5078125
997,0.9375,3.6875,0.5,-0.03076172,-0.09326172,1.009766,0.1391602,-0.01269531,-0.5078125
999,1,3.875,0,-0.02685547,-0.06982422,0.9946289,0.1391602,-0.01269531,-0.5078125
1000,0.8125,3.5,-0.3125,-0.05810547,-0.06982422,0.9711914,0.1391602,-0.01269531,-0.5078125
1002,1.375,3.25,-0.3125,-0.03076172,-0.06591797,1.013672,0.1459961,-0.01953125,-0.5029297
1003,1,3.1875,-1.125,-0.04248047,-0.06201172,0.9985352,0.1459961,-0.01953125,-0.5029297
1005,1.375,2.6875,-1.75,-0.05029297,-0.06591797,0.9907227,0.1459961,-0.01953125,-0.5029297
1006,1.0625,2.6875,-2.125,-0.04638672,-0.08154297,0.9750977,0.1435547,-0.02148438,-0.5053711
1008,1.25,2.375,-2.125,-0.05029297,-0.06982422,0.9829102,0.1435547,-0.02148438,-0.5053711
1009,1.25,1.875,-1.9375,-0.06201172,-0.07763672,0.9946289,0.1435547,-0.02148438,-0.5053711
1011,1.125,0.6875,-1.1875,-0.05419922,-0.07763672,1.001953,0.1435547,-0.02148438,-0.5053711
1012,1.3125,0.625,-1.5,-0.05029297,-0.06591797,0.9790039,0.1479492,-0.01953125,-0.5102539
1014,2.375,-0.875,-2.0625,-0.06201172,-0.07373047,1.013672,0.1479492,-0.01953125,-0.5102539
1015,1.875,-0.9375,-1.4375,-0.07373047,-0.07373047,0.9868164,0.1479492,-0.01953125,-0.5102539
1017,1.25,-0.9375,-0.875,-0.05810547,-0.06982422,0.9946289,0.1459961,-0.01708984,-0.4936523
1018,0.25,-1.5,-0.25,-0.05810547,-0.06982422,0.9907227,0.1459961,-0.01708984,-0.4936523
1020,-0.125,-1.5625,0.375,-0.07763672,-0.07763672,0.9985352,0.1459961,-0.01708984,-0.4936523
1021,-0.8125,-1.1875,1.25,-0.05810547,-0.07373047,0.9868164,0.1479492,-0.01953125,-0.5102539
1023,-0.8125,-1.6875,1.3125,-0.07373047,-0.06982422,0.9946289,0.1479492,-0.01953125,-0.5102539
1024,-0.4375,-1.625,1.3125,-0.05029297,-0.04248047,1.013672,0.1479492,-0.01953125,-0.5102539
1026,-0.25,-1.625,1.375,-0.06591797,-0.1010742,0.9711914,0.1479492,-0.01953125,-0.5102539
1027,-0.1875,-1.3125,1.125,-0.05810547,-0.06591797,1.013672,0.1479492,-0.01953125,-0.5102539
1029,0,-1.3125,1.1875,-0.05029297,-0.07373047,0.9946289,0.1479492,-0.01953125,-0.5102539
1030,0,-1.125,1.8125,-0.06591797,-0.06591797,0.9829102,0.1479492,-0.01953125,-0.5102539
1032,0.5625,-0.375,1.25,-0.04638672,-0.05029297,1.021484,0.1479492,-0.02587891,-0.5053711
1033,0.1875,-0.375,0.875,-0.06982422,-0.07373047,1.025391,0.1479492,-0.02587891,-0.5053711
1035,0.6875,-0.25,1,-0.04638672,-0.08154297,1.001953,0.1479492,-0.02587891,-0.5053711
1036,0.9375,0.1875,1.3125,-0.06201172,-0.08154297,1.021484,0.1523438,-0.01708984,-0.5029297
1038,1.125,0.625,1.125,-0.04638672,-0.08154297,0.9985352,0.1523438,-0.01708984,-0.5029297
1039,1.0625,0.75,1.25,-0.07373047,-0.09326172,1.005859,0.1523438,-0.01708984,-0.5029297
1041,1.25,1.375,1.0625,-0.04248047,-0.07763672,0.9868164,0.1523438,-0.02392578,-0.4960938
1042,1.375,2.1875,1.0625,-0.06982422,-0.07763672,0.9946289,0.1523438,-0.02392578,-0.4960938
1044,1.625,2.5625,1.0625,-0.06982422,-0.07373047,1.005859,0.1523438,-0.02392578,-0.4960938
1045,2.1875,3.6875,1.0625,-0.04248047,-0.06982422,0.9907227,0.1523438,-0.02392578,-0.4960938
1047,2.6875,3.1875,1,-0.06201172,-0.07373047,0.9868164,0.1523438,-0.02392578,-0.4960938
1048,2.375,3.9375,1.1875,-0.03466797,-0.06982422,1.001953,0.1523438,-0.02392578,-0.4960938
1050,2.75,3.4375,1.4375,-0.05810547,-0.06201172,0.9868164,0.1523438,-0.02392578,-0.4960938
1051,1.75,3.8125,1.0625,-0.04248047,-0.05419922,1.017578,0.1567383,-0.02587891,-0.5029297
1053,1.125,4.0625,1.25,-0.04638672,-0.09326172,1.001953,0.1567383,-0.02587891,-0.5029297
1054,1.3125,4.375,0.875,-0.05810547,-0.08154297,0.9907227,0.1567383,-0.02587891,-0.5029297
1056,1,4.6875,0.5,-0.04638672,-0.07373047,0.9868164,0.1411133,-0.02392578,-0.5151367
1057,1.75,4.4375,0.4375,-0.05029297,-0.07373047,1.001953,0.1411133,-0.02392578,-0.5151367
1059,1.9375,5.0625,-0.0625,-0.05810547,-0.06982422,1.009766,0.1411133,-0.02392578,-0.5151367
1060,1.75,4.0625,0.0625,-0.04638672,-0.07763672,0.9829102,0.1503906,-0.01953125,-0.5029297
1062,2.375,3.75,-0.125,-0.05029297,-0.06201172,0.9790039,0.1503906,-0.01953125,-0.5029297
1063,2.0625,3.875,-0.625,-0.06591797,-0.06982422,0.9868164,0.1503906,-0.01953125,-0.5029297
1065,1.25,3.75,-0.375,-0.04638672,-0.06982422,0.9868164,0.1503906,-0.01953125,-0.5029297
1066,0.9375,3.875,-0.6875,-0.05419922,-0.07373047,0.9868164,0.1547852,-0.01708984,-0.5004883
1068,0.4375,3.375,-0.75,-0.04248047,-0.09326172,0.9790039,0.1547852,-0.01708984,-0.5004883
1069,0.9375,3.1875,0.0625,-0.05810547,-0.09326172,0.9907227,0.1547852,-0.01708984,-0.5004883
1071,0.5,2.4375,-0.1875,-0.03076172,-0.09326172,0.9946289,0.1479492,-0.01953125,-0.4960938
1072,0.5625,2.125,-0.375,-0.03857422,-0.07373047,0.9946289,0.1479492,-0.01953125,-0.4960938
1074,0.9375,1.875,0,-0.06591797,-0.07373047,1.001953,0.1479492,-0.01953125,-0.4960938
1075,0.1875,1.4375,0.4375,-0.06591797,-0.06591797,1.013672,0.1503906,-0.02392578,-0.5053711
1077,-0.1875,1,0.75,-0.06591797,-0.05810547,1.005859,0.1503906,-0.02392578,-0.5053711
1078,0,0.125,0.8125,-0.05029297,-0.07763672,1.001953,0.1503906,-0.02392578,-0.5053711
1080,0,0.0625,0.9375,-0.04248047,-0.06982422,0.9946289,0.1503906,-0.02392578,-0.5053711
1081,0.125,0,1.0625,-0.05810547,-0.05419922,1.005859,0.1479492,-0.02392578,-0.4985352
1083,-0.25,0,1.0625,-0.04638672,-0.07763672,0.9985352,0.1479492,-0.02392578,-0.4985352
1084,0.625,-0.6875,0.6875,-0.05419922,-0.07373047,1.005859,0.1479492,-0.02392578,-0.4985352
1086,0.4375,-0.625,0.625,-0.05419922,-0.08154297,1.013672,0.1547852,-0.01708984,-0.5078125
1087,0.5,-0.875,0.875,-0.04248047,-0.06591797,1.017578,0.1547852,-0.01708984,-0.5078125
1089,1.0625,-0.75,0.5,-0.06591797,-0.09716797,1.009766,0.1547852,-0.01708984,-0.5078125
1090,1.125,-1.25,0.8125,-0.05419922,-0.06201172,0.9907227,0.1503906,-0.01513672,-0.5102539
1092,2.1875,-0.25,-0.0625,-0.06982422,-0.07763672,0.9946289,0.1503906,-0.01513672,-0.5102539
1093,1.8125,-0.875,0.0625,-0.05810547,-0.06982422,0.9868164,0.1503906,-0.01513672,-0.5102539
1095,2.0625,-1.1875,0,-0.05810547,-0.06201172,1.017578,0.1391602,-0.02148438,-0.5126953
1096,1.8125,0.125,-0.4375,-0.08154297,-0.08154297,1.017578,0.1391602,-0.02148438,-0.5126953
1098,1.75,-0.3125,-0.1875,-0.05419922,-0.07373047,1.013672,0.1391602,-0.02148438,-0.5126953
1099,2.0625,-0.25,-0.25,-0.05029297,-0.05029297,1.001953,0.1391602,-0.02148438,-0.5126953
1101,3.0625,-0.6875,-0.5625,-0.05810547,-0.05810547,0.9985352,0.1479492,-0.01708984,-0.5029297
1102,2.25,-0.9375,-0.5625,-0.05029297,-0.05029297,1.001953,0.1479492,-0.01708984,-0.5029297
1104,2.25,-0.375,-0.625,-0.06982422,-0.06591797,0.9829102,0.1479492,-0.01708984,-0.5029297
1105,1.4375,-0.4375,-0.875,-0.03857422,-0.07373047,1.001953,0.1479492,-0.01953125,-0.5102539
1107,0.5,-0.6875,-0.5,-0.06591797,-0.07373047,1.013672,0.1479492,-0.01953125,-0.5102539
1108,0.8125,-1,-0.3125,-0.05029297,-0.09326172,1.009766,0.1479492,-0.01953125,-0.5102539
1110,0.5625,-1.375,-0.125,-0.06201172,-0.06591797,0.9868164,0.1459961,-0.02832031,-0.5053711
1111,0.125,-1.625,-0.0625,-0.05029297,-0.06201172,1.005859,0.1459961,-0.02832031,-0.5053711
1113,0.3125,-2.3125,0.125,-0.05419922,-0.06201172,1.009766,0.1459961,-0.02832031,-0.5053711
1114,0.3125,-2.25,0.25,-0.04638672,-0.06201172,1.013672,0.1459961,-0.02832031,-0.5053711
1116,0.125,-2.9375,-0.25,-0.07373047,-0.04248047,0.9985352,0.1459961,-0.02832031,-0.5053711
1117,-0.3125,-2.25,0.1875,-0.07763672,-0.06982422,1.013672,0.1459961,-0.02832031,-0.5053711
1119,-0.5,-2.75,-0.1875,-0.05810547,-0.06982422,1.025391,0.1459961,-0.02832031,-0.5053711
1120,-0.125,-1.875,0.0625,-0.05419922,-0.07373047,0.9985352,0.1411133,-0.01953125,-0.5029297
1122,0,-1.9375,0.375,-0.06591797,-0.07763672,1.009766,0.1411133,-0.01953125,-0.5029297
1123,0.125,-1.9375,0.375,-0.05419922,-0.06201172,0.9868164,0.1411133,-0.01953125,-0.5029297
1125,-0.4375,-2.4375,0.4375,-0.06982422,-0.07373047,0.9868164,0.1503906,-0.02392578,-0.4985352
1126,-1.375,-2.0625,-0.1875,-0.04638672,-0.06982422,1.009766,0.1503906,-0.02392578,-0.4985352
1128,-1.0625,-1.6875,-0.125,-0.04248047,-0.05810547,0.9946289,0.1503906,-0.02392578,-0.4985352
1129,-1.125,-1.875,0.125,-0.05810547,-0.06591797,1.021484,0.1435547,-0.02832031,-0.4985352
1131,-1.1875,-1.375,0.125,-0.03466797,-0.08154297,0.9907227,0.1435547,-0.02832031,-0.4985352
1132,-0.5625,-1,-0.1875,-0.03857422,-0.06982422,1.013672,0.1435547,-0.02832031,-0.4985352
1134,-1.3125,-1,-0.625,-0.04638672,-0.05029297,0.9985352,0.1435547,-0.02832031,-0.4985352
1135,-0.625,-0.1875,-0.5625,-0.04248047,-0.05810547,0.9868164,0.1479492,-0.02832031,-0.4985352
1137,-0.5625,0.25,-0.875,-0.05419922,-0.05419922,1.013672,0.1479492,-0.02832031,-0.4985352
1138,-0.5625,0.0625,-0.5,-0.05419922,-0.05029297,1.001953,0.1479492,-0.02832031,-0.4985352
1140,0,0.625,-0.5,-0.03466797,-0.06201172,1.021484,0.1503906,-0.02148438,-0.4985352
1141,0.375,0.6875,-0.25,-0.05029297,-0.06591797,0.9985352,0.1503906,-0.02148438,-0.4985352
1143,0.4375,1.25,-0.5625,-0.05029297,-0.07763672,1.005859,0.1503906,-0.02148438,-0.4985352
1144,0.5,1.1875,-0.5625,-0.05810547,-0.06591797,1.001953,0.1459961,-0.03271484,-0.4985352
1146,-0.0625,1.375,-0.25,-0.06201172,-0.05810547,0.9750977,0.1459961,-0.03271484,-0.4985352
1147,-0.4375,0.3125,0.3125,-0.05419922,-0.08935547,1.029297,0.1459961,-0.03271484,-0.4985352
1149,-0.25,0,0.4375,-0.03857422,-0.06201172,1.025391,0.1459961,-0.03271484,-0.4985352
1150,-0.4375,-0.1875,0.75,-0.06201172,-0.06201172,0.9907227,0.1459961,-0.03271484,-0.4985352
1152,-1,-0.8125,1.375,-0.06982422,-0.07763672,1.001953,0.1459961,-0.03271484,-0.4985352
1153,-1.5,-1.4375,1.1875,-0.03076172,-0.09326172,0.9829102,0.1459961,-0.03271484,-0.4985352
1155,-1.0625,-1.1875,0.9375,-0.03076172,-0.07763672,0.9985352,0.1459961,-0.01953125,-0.5102539
1156,-1.3125,-1.375,1.1875,-0.05029297,-0.07763672,1.009766,0.1459961,-0.01953125,-0.5102539
1158,-1.0625,-1.5,0.875,-0.07373047,-0.06591797,1.017578,0.1459961,-0.01953125,-0.5102539
1161,-1.3125,-1.6875,1.1875,-0.05810547,-0.06201172,1.013672,0.1503906,-0.02392578,-0.5004883
1163,-1.0625,-1.375,0.625,-0.06982422,-0.06201172,1.013672,0.1503906,-0.02392578,-0.5004883
1164,-0.6875,-1.375,0.625,-0.05029297,-0.06982422,0.9946289,0.1503906,-0.02392578,-0.5004883
1166,-1,-1.625,0.6875,-0.04638672,-0.06982422,1.005859,0.1503906,-0.02587891,-0.5053711
1167,-0.75,-1.5,0,-0.04248047,-0.08154297,1.001953,0.1503906,-0.02587891,-0.5053711
1169,-1.375,-1.1875,0,-0.04638672,-0.07373047,0.9985352,0.1503906,-0.02587891,-0.5053711
1170,-1,-0.8125,-0.3125,-0.05419922,-0.07763672,1.005859,0.1503906,-0.02587891,-0.5053711
1172,-1.0625,0,-0.875,-0.05419922,-0.08154297,0.9790039,0.1347656,-0.02148438,-0.5078125
1173,-0.9375,0.4375,-0.75,-0.03076172,-0.06982422,1.013672,0.1347656,-0.02148438,-0.5078125
1175,-1.125,0.6875,-1.25,-0.06591797,-0.05419922,1.001953,0.1347656,-0.02148438,-0.5078125
1176,-1.1875,1.4375,-1.375,-0.05419922,-0.05029297,0.9985352,0.1367188,-0.01953125,-0.5053711
1178,-0.75,0.75,-1.0625,-0.04248047,-0.07373047,1.001953,0.1367188,-0.01953125,-0.5053711
1179,-0.0625,0.75,-1.1875,-0.05029297,-0.05810547,0.9985352,0.1367188,-0.01953125,-0.5053711
1181,-0.5,1.0625,-1.3125,-0.05029297,-0.06982422,1.001953,0.1435547,-0.01513672,-0.5053711
1182,-0.1875,1.0625,-1.3125,-0.04248047,-0.08544922,0.9985352,0.1435547,-0.01513672,-0.5053711
1184,-0.3125,0.75,-1.0625,-0.07373047,-0.06591797,0.9907227,0.1435547,-0.01513672,-0.5053711
1185,-0.5625,0.875,-0.875,-0.08154297,-0.07763672,1.021484,0.1435547,-0.01513672,-0.5053711
1187,0,1.1875,-0.6875,-0.05029297,-0.07763672,0.9946289,0.1435547,-0.01513672,-0.5053711
1188,-0.125,1.25,-0.125,-0.05029297,-0.06982422,0.9946289,0.1435547,-0.01513672,-0.5053711
1190,0.3125,1.3125,-0.625,-0.05419922,-0.06982422,0.9750977,0.1435547,-0.01513672,-0.5053711
1191,1.0625,1.25,-0.3125,-0.05029297,-0.07373047,1.001953,0.1459961,-0.01708984,-0.5126953
1193,0.375,1.125,-0.5,-0.05810547,-0.07373047,1.001953,0.1459961,-0.01708984,-0.5126953
1194,0.4375,0.6875,0.375,-0.05419922,-0.08154297,0.9946289,0.1459961,-0.01708984,-0.5126953
1196,0.375,0.875,0.0625,-0.06591797,-0.08154297,0.9985352,0.1503906,-0.01269531,-0.5078125
1197,-0.125,1.1875,0.25,-0.05029297,-0.07763672,0.9985352,0.1503906,-0.01269531,-0.5078125
1199,0.125,0.5625,0.875,-0.05419922,-0.06591797,1.013672,0.1503906,-0.01269531,-0.5078125
1200,-0.125,1.5,1,-0.05029297,-0.07373047,0.9907227,0.1459961,-0.01708984,-0.5102539
1202,-0.25,1.0625,0.6875,-0.05029297,-0.08154297,0.9868164,0.1459961,-0.01708984,-0.5102539
1203,-0.625,1,0.5,-0.05810547,-0.06982422,1.001953,0.1459961,-0.01708984,-0.5102539
1205,-0.5625,1,0.6875,-0.04638672,-0.05810547,0.9907227,0.1459961,-0.01708984,-0.5102539
1206,-1.3125,0.6875,0.125,-0.04248047,-0.07763672,1.001953,0.1479492,-0.02832031,-0.5053711
1208,-1.25,0.625,1,-0.06982422,-0.05029297,0.9829102,0.1479492,-0.02832031,-0.5053711
1209,-0.875,-0.125,0.8125,-0.05029297,-0.07373047,1.017578,0.1479492,-0.02832031,-0.5053711
1211,-0.875,-0.125,0.4375,-0.08154297,-0.04638672,1.005859,0.1435547,-0.02587891,-0.5102539
1212,-0.375,-0.9375,0.375,-0.05419922,-0.06201172,1.001953,0.1435547,-0.02587891,-0.5102539
1214,-0.25,-0.375,0.4375,-0.03857422,-0.06982422,1.021484,0.1435547,-0.02587891,-0.5102539
1215,-0.625,-0.5625,0.4375,-0.04248047,-0.06982422,0.9985352,0.1435547,-0.01953125,-0.5053711
1217,-0.875,-1.0625,0.625,-0.03076172,-0.07373047,1.001953,0.1435547,-0.01953125,-0.5053711
1218,-0.875,-0.8125,1.0625,-0.02685547,-0.06591797,0.9829102,0.1435547,-0.01953125,-0.5053711
1220,-0.625,-1.125,0.75,-0.05029297,-0.05810547,0.9907227,0.1435547,-0.01953125,-0.5053711
1221,-1,-1.5,0.625,-0.05029297,-0.06982422,0.9946289,0.1435547,-0.01953125,-0.5053711
1223,-0.5625,-1.6875,0.125,-0.07763672,-0.06201172,0.9946289,0.1435547,-0.01953125,-0.5053711
1224,-0.5,-1.5,0.375,-0.04248047,-0.06982422,1.001953,0.1435547,-0.01953125,-0.5053711
1226,0.1875,-1.25,0.1875,-0.05810547,-0.05810547,1.005859,0.1523438,-0.01269531,-0.5004883
1227,-0.1875,-1.0625,0.5,-0.04248047,-0.07763672,0.9985352,0.1523438,-0.01269531,-0.5004883
1229,-0.8125,-1.0625,0.3125,-0.06982422,-0.05810547,1.001953,0.1523438,-0.01269531,-0.5004883
1230,-0.75,-0.5,-0.0625,-0.05810547,-0.06982422,0.9946289,0.1391602,-0.01953125,-0.5004883
1232,-0.4375,-0.6875,0.125,-0.04638672,-0.06982422,0.9868164,0.1391602,-0.01953125,-0.5004883
1233,-0.125,-0.5625,-0.4375,-0.05810547,-0.05810547,1.009766,0.1391602,-0.01953125,-0.5004883
1235,-0.625,-0.75,-0.1875,-0.04638672,-0.06591797,1.013672,0.1435547,-0.02392578,-0.4985352
1236,-0.9375,-1,-0.4375,-0.05810547,-0.06591797,1.001953,0.1435547,-0.02392578,-0.4985352
1238,-1.0625,0.125,-0.375,-0.05419922,-0.06591797,1.029297,0.1435547,-0.02392578,-0.4985352
1239,-0.9375,-0.125,-0.25,-0.06201172,-0.05419922,1.009766,0.1435547,-0.02392578,-0.4985352
1241,-0.875,0.25,-0.5,-0.05419922,-0.04638672,1.013672,0.1459961,-0.01953125,-0.5102539
1242,-0.5,0,-0.0625,-0.03857422,-0.05810547,0.9946289,0.1459961,-0.01953125,-0.5102539
1244,0,-0.25,-0.4375,-0.05029297,-0.06591797,0.9907227,0.1459961,-0.01953125,-0.5102539
1245,0,-0.4375,-0.375,-0.05419922,-0.06591797,0.9946289,0.1459961,-0.01708984,-0.5004883
1247,0.3125,-0.75,0.125,-0.06591797,-0.08154297,0.9750977,0.1459961,-0.01708984,-0.5004883
1248,0.0625,-0.6875,0.375,-0.07373047,-0.07763672,0.9985352,0.1459961,-0.01708984,-0.5004883
1250,0.9375,-1.1875,0.3125,-0.04638672,-0.08154297,1.001953,0.1435547,-0.01513672,-0.4985352
1251,1.1875,-1.875,0.75,-0.04638672,-0.07763672,0.9829102,0.1435547,-0.01513672,-0.4985352
1253,1.0625,-2.0625,1.1875,-0.03076172,-0.07373047,0.9907227,0.1435547,-0.01513672,-0.4985352
1254,1.75,-2.3125,0.625,-0.04638672,-0.08935547,1.013672,0.1435547,-0.01513672,-0.4985352
1256,1.25,-2.8125,1.5625,-0.05029297,-0.06591797,1.001953,0.1435547,-0.01513672,-0.4985352
1257,1.4375,-2.875,1.375,-0.06201172,-0.06201172,1.001953,0.1435547,-0.01513672,-0.4985352
1259,0.3125,-2.5,1.75,-0.05029297,-0.07763672,0.9985352,0.1435547,-0.01513672,-0.4985352
1260,0.1875,-2.6875,2.0625,-0.06591797,-0.08154297,1.009766,0.1503906,-0.01269531,-0.5053711
1262,-0.25,-2.875,1.8125,-0.06982422,-0.05810547,1.029297,0.1503906,-0.01269531,-0.5053711
1263,-0.0625,-2.9375,1.625,-0.05419922,-0.03466797,1.013672,0.1503906,-0.01269531,-0.5053711
1265,-0.375,-3.4375,1.75,-0.03076172,-0.04248047,1.021484,0.1347656,-0.01708984,-0.5126953
1266,0.8125,-2.3125,0.4375,-0.02294922,-0.04638672,1.017578,0.1347656,-0.01708984,-0.5126953
1268,2.5625,-2.0625,-0.25,-0.04248047,-0.06201172,1.005859,0.1347656,-0.01708984,-0.5126953
1269,3.125,-2.5625,-0.8125,-0.03076172,-0.07763672,0.9985352,0.1411133,-0.01708984,-0.5126953
1271,1.625,-2.625,-0.9375,-0.04638672,-0.06201172,1.001953,0.1411133,-0.01708984,-0.5126953
1272,0,-2.1875,-0.75,-0.05810547,-0.05810547,1.005859,0.1411133,-0.01708984,-0.5126953
1274,0.1875,-1.0625,-1.125,-0.03076172,-0.07763672,0.9868164,0.1411133,-0.01708984,-0.5126953
1275,-0.4375,-0.25,-1.3125,-0.03857422,-0.08935547,0.9907227,0.1479492,-0.02832031,-0.5102539
1277,-2.4375,-0.5,-1.1875,-0.03076172,-0.07763672,1.021484,0.1479492,-0.02832031,-0.5102539
1278,-2.75,0.5625,-0.4375,-0.04638672,-0.07763672,1.001953,0.1479492,-0.02832031,-0.5102539
1280,-1.875,1.0625,-1,-0.04248047,-0.06982422,1.001953,0.1411133,-0.01953125,-0.4985352
1281,-0.75,1.5,-1.5625,-0.05029297,-0.07763672,1.017578,0.1411133,-0.01953125,-0.4985352
1283,-0.0625,1.9375,-1.625,-0.05029297,-0.07763672,1.001953,0.1411133,-0.01953125,-0.4985352
1284,-0.0625,2.3125,-1.25,-0.06591797,-0.06201172,1.013672,0.1503906,-0.01953125,-0.5078125
1286,-0.625,3.5,-0.625,-0.05810547,-0.09326172,1.029297,0.1503906,-0.01953125,-0.5078125
1287,0,3.4375,-0.125,-0.04638672,-0.08544922,1.013672,0.1503906,-0.01953125,-0.5078125
1289,0.25,4.0625,-0.0625,-0.03466797,-0.09716797,1.013672,0.1503906,-0.01953125,-0.5078125
1290,-0.125,3.75,0.125,-0.04638672,-0.07763672,1.009766,0.1503906,-0.01953125,-0.5078125
1292,0.5,4.0625,0.875,-0.05419922,-0.07763672,0.9985352,0.1503906,-0.01953125,-0.5078125
1293,1.0625,4.0625,1.1875,-0.06591797,-0.08544922,0.9868164,0.1503906,-0.01953125,-0.5078125
1295,-0.125,3.9375,1.75,-0.03466797,-0.07373047,0.9907227,0.1367188,-0.02832031,-0.5053711
1296,-0.0625,4.0625,2.6875,-0.04248047,-0.08154297,0.9946289,0.1367188,-0.02832031,-0.5053711
1298,-0.1875,3.3125,2.6875,-0.05029297,-0.07373047,0.9985352,0.1367188,-0.02832031,-0.5053711
1299,0.0625,2.875,3.8125,-0.04638672,-0.07763672,1.013672,0.1435547,-0.02148438,-0.5029297
1301,0.5625,2.125,3.3125,-0.04638672,-0.05029297,1.005859,0.1435547,-0.02148438,-0.5029297
1302,0.6875,2.0625,3.625,-0.03076172,-0.06982422,0.9985352,0.1435547,-0.02148438,-0.5029297
1304,0.5625,2.0625,3.75,-0.03466797,-0.09326172,1.005859,0.1479492,-0.02148438,-0.4960938
1305,0.9375,1.3125,3.1875,-0.07373047,-0.06201172,1.001953,0.1479492,-0.02148438,-0.4960938
1307,0.875,2,2.8125,-0.06591797,-0.05810547,0.9790039,0.1479492,-0.02148438,-0.4960938
1308,1.4375,1.6875,2.5625,-0.03857422,-0.05810547,0.9946289,0.1479492,-0.02148438,-0.4960938
1310,1.1875,2.0625,2.125,-0.05810547,-0.06982422,0.9750977,0.1435547,-0.01513672,-0.5078125
1311,1.125,1.125,1.8125,-0.06982422,-0.07763672,0.9868164,0.1435547,-0.01513672,-0.5078125
1313,1.1875,1.5,1.25,-0.05029297,-0.06201172,0.9907227,0.1435547,-0.01513672,-0.5078125
1314,0.8125,1.5,0.3125,-0.04638672,-0.08544922,1.001953,0.1479492,-0.02392578,-0.5029297
1316,1.375,1.8125,0.25,-0.05029297,-0.07373047,0.9946289,0.1479492,-0.02392578,-0.5029297
1317,1.0625,1.9375,-0.375,-0.04638672,-0.09326172,0.9985352,0.1479492,-0.02392578,-0.5029297
1319,1.75,1.8125,-0.9375,-0.05029297,-0.06591797,0.9829102,0.1503906,-0.02392578,-0.5126953
1320,0.9375,1.8125,-1.625,-0.05810547,-0.07373047,0.9868164,0.1503906,-0.02392578,-0.5126953
1322,1.4375,1.375,-1.5625,-0.05810547,-0.06982422,0.9790039,0.1503906,-0.02392578,-0.5126953
1323,1.1875,1.5625,-1.6875,-0.03466797,-0.06591797,0.9946289,0.1503906,-0.02392578,-0.5126953
1325,1.875,1.9375,-2.0625,-0.05029297,-0.07763672,0.9946289,0.1503906,-0.02392578,-0.5126953
1326,0.6875,1.875,-2.25,-0.06201172,-0.06982422,0.9985352,0.1503906,-0.02392578,-0.5126953
1328,0.5,1.5,-1.6875,-0.04638672,-0.1010742,0.9868164,0.1503906,-0.02392578,-0.5126953
1329,0.5625,1.1875,-1.1875,-0.04638672,-0.09326172,0.9790039,0.1479492,-0.03027344,-0.4960938
1331,0.4375,1.6875,-1.25,-0.06201172,-0.08154297,1.001953,0.1479492,-0.03027344,-0.4960938
1332,-0.25,1.375,-1,-0.06591797,-0.07373047,0.9985352,0.1479492,-0.03027344,-0.4960938
1334,0.0625,1.3125,-0.4375,-0.03857422,-0.09326172,0.9946289,0.1479492,-0.01269531,-0.5102539
1335,-0.6875,1.4375,-0.125,-0.06201172,-0.09326172,1.005859,0.1479492,-0.01269531,-0.5102539
1337,-0.8125,1.1875,0,-0.06201172,-0.09326172,0.9829102,0.1479492,-0.01269531,-0.5102539
1338,-0.125,0.3125,0.5,-0.05419922,-0.07373047,1.017578,0.1459961,-0.01953125,-0.5029297
1340,-0.0625,0.125,0.5,-0.05029297,-0.06982422,0.9868164,0.1459961,-0.01953125,-0.5029297
1341,0.125,-0.0625,0.375,-0.04638672,-0.06201172,0.9985352,0.1459961,-0.01953125,-0.5029297
1343,0,0,0.5625,-0.05419922,-0.06591797,1.005859,0.1459961,-0.01953125,-0.5029297
1344,0.625,0.5,0.875,-0.06201172,-0.06982422,0.9985352,0.1503906,-0.01953125,-0.5029297
1346,0.75,-0.25,0.9375,-0.05419922,-0.06591797,0.9985352,0.1503906,-0.01953125,-0.5029297
1347,0.875,-0.375,0.9375,-0.06591797,-0.07763672,1.017578,0.1503906,-0.01953125,-0.5029297
1349,0.1875,-0.3125,1.125,-0.04638672,-0.08154297,0.9946289,0.1503906,-0.02148438,-0.5029297
1350,0.875,-1,1.3125,-0.06982422,-0.06591797,0.9985352,0.1503906,-0.02148438,-0.5029297
1352,1.0625,-0.8125,1.4375,-0.06982422,-0.04248047,1.005859,0.1503906,-0.02148438,-0.5029297
1353,0.5,-0.625,2,-0.06201172,-0.05029297,0.9985352,0.1479492,-0.01953125,-0.5053711
1355,0.875,-0.625,2.1875,-0.03076172,-0.05029297,0.9868164,0.1479492,-0.01953125,-0.5053711
1356,0.6875,-0.8125,2.375,-0.04638672,-0.06201172,1.009766,0.1479492,-0.01953125,-0.5053711
1358,1.125,-0.0625,2.0625,-0.05810547,-0.06591797,0.9907227,0.1479492,-0.01953125,-0.5053711
1359,0.875,0.125,2.4375,-0.05810547,-0.07763672,0.9946289,0.1479492,-0.01953125,-0.5053711
1361,0.75,0.6875,2.4375,-0.06201172,-0.05810547,1.013672,0.1479492,-0.01953125,-0.5053711
1362,1.125,0.6875,1.9375,-0.05419922,-0.05419922,1.001953,0.1479492,-0.01953125,-0.5053711
1364,1,1,1.8125,-0.05419922,-0.05810547,1.005859,0.1435547,-0.01953125,-0.5053711
1365,1,1.5,0.9375,-0.06201172,-0.05029297,1.005859,0.1435547,-0.01953125,-0.5053711
1367,1,2.25,0.4375,-0.04638672,-0.05029297,1.013672,0.1435547,-0.01953125,-0.5053711
1368,1.0625,2.625,0,-0.06591797,-0.05810547,1.029297,0.1479492,-0.02148438,-0.4985352
1370,0.875,3,0.1875,-0.06201172,-0.05029297,1.005859,0.1479492,-0.02148438,-0.4985352
1371,0.875,3.9375,-0.4375,-0.03076172,-0.07373047,0.9985352,0.1479492,-0.02148438,-0.4985352
1373,1.125,3.75,-1.4375,-0.05810547,-0.05419922,0.9868164,0.1503906,-0.01513672,-0.4960938
1374,1.25,4.4375,-1.3125,-0.04248047,-0.05810547,0.9946289,0.1503906,-0.01513672,-0.4960938
1376,1.5,4.5,-2,-0.05810547,-0.06982422,0.9907227,0.1503906,-0.01513672,-0.4960938
1377,0.75,4.75,-2,-0.05029297,-0.09326172,0.9946289,0.1503906,-0.01513672,-0.4960938
1379,0.375,4.9375,-1.9375,-0.05029297,-0.07373047,0.9907227,0.1503906,-0.01708984,-0.5029297
1380,1.25,5.1875,-1.3125,-0.06982422,-0.06982422,0.9946289,0.1503906,-0.01708984,-0.5029297
1382,0.9375,5.25,-1.6875,-0.05419922,-0.06982422,1.001953,0.1503906,-0.01708984,-0.5029297
1383,1.625,4.9375,-1.375,-0.07373047,-0.06591797,0.9829102,0.1459961,-0.01953125,-0.4960938
1385,1.25,4.5,-1.4375,-0.05810547,-0.08544922,0.9868164,0.1459961,-0.01953125,-0.4960938
1386,1.5,3.9375,-1,-0.04248047,-0.08154297,1.005859,0.1459961,-0.01953125,-0.4960938
1388,1.25,3.4375,-0.8125,-0.05419922,-0.07763672,0.9672852,0.1479492,-0.02832031,-0.5004883
1389,1.1875,3.625,-0.1875,-0.05419922,-0.08154297,0.9790039,0.1479492,-0.02832031,-0.5004883
1391,1,2.875,0.3125,-0.04638672,-0.1049805,0.9790039,0.1479492,-0.02832031,-0.5004883
1392,0.75,2.25,0.5625,-0.06591797,-0.08544922,0.9985352,0.1479492,-0.02832031,-0.5004883
1394,0.6875,1.625,0.3125,-0.05029297,-0.09326172,0.9985352,0.1479492,-0.02832031,-0.5004883
1395,0.625,1.125,1.25,-0.05419922,-0.08154297,1.001953,0.1479492,-0.02832031,-0.5004883
1397,0.5625,0.1875,1.875,-0.05810547,-0.05810547,1.005859,0.1479492,-0.02832031,-0.5004883
1398,0.6875,0.125,1.75,-0.05810547,-0.08544922,0.9985352,0.1479492,-0.02148438,-0.4936523
1400,0.25,-0.625,2.5,-0.05419922,-0.07763672,0.9946289,0.1479492,-0.02148438,-0.4936523
1401,-0.625,-0.8125,1.875,-0.04638672,-0.09716797,1.005859,0.1479492,-0.02148438,-0.4936523
1403,-0.25,-1.8125,2.125,-0.05810547,-0.09326172,0.9946289,0.1459961,-0.02392578,-0.5102539
1404,-0.75,-1.6875,1.875,-0.05810547,-0.08154297,1.013672,0.1459961,-0.02392578,-0.5102539
1406,-0.5625,-2.3125,1.25,-0.07373047,-0.06201172,0.9907227,0.1459961,-0.02392578,-0.5102539
1407,-0.375,-2.375,0.6875,-0.04638672,-0.06982422,0.9985352,0.1391602,-0.02587891,-0.5004883
1409,-0.125,-2.6875,0.4375,-0.08154297,-0.06591797,1.001953,0.1391602,-0.02587891,-0.5004883
1410,-0.625,-2.625,0.5625,-0.08154297,-0.06982422,1.005859,0.1391602,-0.02587891,-0.5004883
1412,-0.6875,-2.6875,0.1875,-0.06591797,-0.06591797,1.017578,0.1391602,-0.02587891,-0.5004883
1413,-0.1875,-2.625,-0.375,-0.05810547,-0.06982422,1.009766,0.1523438,-0.01953125,-0.5029297
1415,0.4375,-3.1875,-1.125,-0.06201172,-0.05810547,1.021484,0.1523438,-0.01953125,-0.5029297
1416,0.8125,-3,-1.375,-0.06591797,-0.05419922,1.044922,0.1523438,-0.01953125,-0.5029297
1418,0.875,-3.1875,-1.3125,-0.06201172,-0.05810547,1.033203,0.1459961,-0.02148438,-0.5053711
1419,0.875,-2.9375,-1.75,-0.06201172,-0.07763672,1.033203,0.1459961,-0.02148438,-0.5053711
1421,0.25,-2.1875,-2.375,-0.04248047,-0.06201172,1.033203,0.1459961,-0.02148438,-0.5053711
1422,0.5625,-2.0625,-2.625,-0.06591797,-0.05029297,1.009766,0.1459961,-0.01953125,-0.5004883
1424,1.125,-1.875,-2.1875,-0.06201172,-0.06982422,0.9946289,0.1459961,-0.01953125,-0.5004883
1425,1.0625,-1.875,-2.625,-0.06201172,-0.06982422,1.001953,0.1459961,-0.01953125,-0.5004883
1427,0.5,-0.8125,-2.5625,-0.05419922,-0.07763672,1.005859,0.1459961,-0.01953125,-0.5004883
1428,0.5,-1.125,-2.0625,-0.06591797,-0.07763672,1.025391,0.1459961,-0.01953125,-0.5004883
1430,1.375,-0.75,-1.75,-0.06591797,-0.06201172,1.021484,0.1459961,-0.01953125,-0.5004883
1431,1.3125,-0.8125,-1.25,-0.05810547,-0.07373047,0.9907227,0.1459961,-0.01953125,-0.5004883
1433,0.9375,-1.3125,-0.8125,-0.06201172,-0.07763672,0.9946289,0.1411133,-0.01513672,-0.5053711
1434,1,-1.625,-0.375,-0.07763672,-0.08154297,1.001953,0.1411133,-0.01513672,-0.5053711
1436,0.25,-2,-0.125,-0.05810547,-0.09326172,1.013672,0.1411133,-0.01513672,-0.5053711
1437,0.25,-1.9375,0.125,-0.06591797,-0.1010742,1.009766,0.1479492,-0.03027344,-0.4960938
1439,-0.25,-1.6875,1.3125,-0.05810547,-0.08154297,1.005859,0.1479492,-0.03027344,-0.4960938
1440,-0.625,-1.625,1.8125,-0.03857422,-0.04638672,0.9790039,0.1479492,-0.03027344,-0.4960938
1442,0,-1.25,1.9375,-0.06982422,-0.06591797,1.017578,0.1459961,-0.02587891,-0.5078125
1443,-0.5625,-1.5,1.4375,-0.07373047,-0.09326172,0.9946289,0.1459961,-0.02587891,-0.5078125
1445,0,-2.375,1.6875,-0.04638672,-0.05419922,1.005859,0.1459961,-0.02587891,-0.5078125
1446,0.3125,-2.3125,1.6875,-0.05029297,-0.09326172,1.017578,0.1459961,-0.02587891,-0.5078125
1448,0.0625,-2.0625,1.125,-0.05810547,-0.05810547,1.009766,0.1435547,-0.02392578,-0.4960938
1449,-0.5,-2.125,1.3125,-0.03076172,-0.07373047,1.017578,0.1435547,-0.02392578,-0.4960938
1451,0.0625,-2.375,0.875,-0.03857422,-0.06591797,1.013672,0.1435547,-0.02392578,-0.4960938
1452,0.5,-1.9375,0.5625,-0.05419922,-0.06591797,1.005859,0.1523438,-0.02587891,-0.5053711
1454,0.8125,-2.25,0.5625,-0.03076172,-0.07373047,1.017578,0.1523438,-0.02587891,-0.5053711
1455,0.4375,-1.6875,0.0625,-0.05419922,-0.06201172,1.001953,0.1523438,-0.02587891,-0.5053711
1457,0.0625,-1.625,-0.3125,-0.04638672,-0.06982422,1.029297,0.1479492,-0.01269531,-0.5053711
1458,-0.0625,-0.8125,-1.3125,-0.06591797,-0.08154297,1.013672,0.1479492,-0.01269531,-0.5053711
1460,0,-0.25,-0.6875,-0.05419922,-0.03466797,0.9868164,0.1479492,-0.01269531,-0.5053711
1461,-0.75,0.75,-1,-0.05029297,-0.06591797,0.9985352,0.1479492,-0.01269531,-0.5053711
1463,-0.9375,0.875,-1.125,-0.05810547,-0.05419922,1.005859,0.1479492,-0.01269531,-0.5053711
1464,-1.375,0.8125,-2.0625,-0.03466797,-0.06982422,1.029297,0.1479492,-0.01269531,-0.5053711
1466,-1.5,1.1875,-2.5,-0.05029297,-0.04248047,0.9985352,0.1479492,-0.01269531,-0.5053711
1467,-0.875,1.0625,-3,-0.05810547,-0.05810547,1.044922,0.1479492,-0.02587891,-0.4985352
1469,-1.3125,0.9375,-3.0625,-0.06201172,-0.06201172,1.009766,0.1479492,-0.02587891,-0.4985352
1470,-1.1875,1.3125,-2.875,-0.06201172,-0.06982422,1.009766,0.1479492,-0.02587891,-0.4985352
1472,-1.25,0.5625,-2.625,-0.05419922,-0.06201172,1.029297,0.1459961,-0.01953125,-0.5053711
1473,-1.125,1.25,-2.75,-0.05419922,-0.07373047,1.029297,0.1459961,-0.01953125,-0.5053711
1475,-1.75,1.9375,-2.8125,-0.06201172,-0.05810547,1.013672,0.1459961,-0.01953125,-0.5053711
1476,-1.375,1.9375,-2.5625,-0.04638672,-0.07373047,1.009766,0.1523438,-0.02392578,-0.5078125
1478,-2.0625,1.9375,-2.1875,-0.07373047,-0.07373047,0.9750977,0.1523438,-0.02392578,-0.5078125
1479,-2.125,2.0625,-1.0625,-0.05419922,-0.07763672,0.9985352,0.1523438,-0.02392578,-0.5078125
1481,-2,1.75,-0.75,-0.05419922,-0.07763672,0.9946289,0.1523438,-0.02392578,-0.5078125
1482,-1.875,0.8125,-1,-0.05419922,-0.06201172,1.005859,0.1479492,-0.01513672,-0.5053711
1484,-2.0625,0.5625,-0.5,-0.05419922,-0.08935547,0.9907227,0.1479492,-0.01513672,-0.5053711
1485,-1.4375,-0.0625,-0.375,-0.07763672,-0.07373047,1.009766,0.1479492,-0.01513672,-0.5053711
1487,-1.6875,0,0.1875,-0.05029297,-0.07763672,1.001953,0.1459961,-0.01513672,-0.5102539
1488,-2.125,-0.3125,0.625,-0.06982422,-0.06982422,1.001953,0.1459961,-0.01513672,-0.5102539
1490,-1.75,-0.5625,1.1875,-0.05029297,-0.04638672,0.9907227,0.1459961,-0.01513672,-0.5102539
1491,-1.3125,-0.6875,0.8125,-0.05419922,-0.06982422,1.005859,0.1479492,-0.01513672,-0.4985352
1493,-0.375,-1.25,0.9375,-0.05029297,-0.04638672,0.9829102,0.1479492,-0.01513672,-0.4985352
1494,-0.625,-1.75,0.625,-0.06201172,-0.09326172,1.001953,0.1479492,-0.01513672,-0.4985352
1496,-0.5,-1.625,0.125,-0.06982422,-0.07763672,1.009766,0.1479492,-0.01513672,-0.4985352
1497,-0.75,-1.5,1.0625,-0.05419922,-0.08154297,1.013672,0.1479492,-0.01513672,-0.4985352
1499,-0.625,-1.25,1.125,-0.06201172,-0.06591797,1.017578,0.1479492,-0.01513672,-0.4985352
1500,-1,-1.25,0.625,-0.05029297,-0.06201172,0.9946289,0.1479492,-0.01513672,-0.4985352
1502,-0.8125,-0.9375,0.3125,-0.05810547,-0.07763672,0.9946289,0.1459961,-0.02587891,-0.5102539
1503,-0.75,-0.5,0.25,-0.06591797,-0.06201172,0.9868164,0.1459961,-0.02587891,-0.5102539
1505,-0.9375,-0.5625,-0.25,-0.02294922,-0.08154297,1.001953,0.1459961,-0.02587891,-0.5102539
1506,-1.0625,-0.5625,-0.1875,-0.03076172,-0.07373047,0.9868164,0.1459961,-0.01269531,-0.5053711
1508,-0.6875,-0.375,-0.625,-0.04638672,-0.06591797,0.9946289,0.1459961,-0.01269531,-0.5053711
1509,-0.6875,-0.1875,-1.8125,-0.07373047,-0.08544922,1.009766,0.1459961,-0.01269531,-0.5053711
1511,-0.5,-0.3125,-1.75,-0.05029297,-0.06982422,1.009766,0.1547852,-0.01953125,-0.5078125
1512,-1.125,0.4375,-2.1875,-0.05810547,-0.08154297,1.013672,0.1547852,-0.01953125,-0.5078125
1514,-0.375,0.0625,-1.6875,-0.05810547,-0.07373047,0.9946289,0.1547852,-0.01953125,-0.5078125
1515,-1.0625,0.0625,-2,-0.06982422,-0.07373047,1.017578,0.1547852,-0.01953125,-0.5078125
1517,-0.875,0.1875,-2.25,-0.08154297,-0.08544922,0.9907227,0.1503906,-0.01708984,-0.5004883
1518,-1.5625,-0.125,-1.9375,-0.06591797,-0.07373047,0.9985352,0.1503906,-0.01708984,-0.5004883
1520,-1.4375,-0.25,-1.375,-0.06591797,-0.06591797,0.9946289,0.1503906,-0.01708984,-0.5004883
1521,-1.5625,-0.75,-1.375,-0.06591797,-0.08154297,0.9907227,0.1479492,-0.01513672,-0.5053711
1523,-2.25,0.25,-1.125,-0.06591797,-0.07373047,1.001953,0.1479492,-0.01513672,-0.5053711
1524,-2.5,-0.625,-0.375,-0.06982422,-0.07763672,0.9868164,0.1479492,-0.01513672,-0.5053711
1526,-3,-1,0.0625,-0.07373047,-0.05029297,0.9829102,0.1503906,-0.01708984,-0.4960938
1527,-2.625,-1.375,-0.0625,-0.07373047,-0.08544922,0.9946289,0.1503906,-0.01708984,-0.4960938
1529,-3.0625,-1.4375,0.625,-0.07373047,-0.07373047,1.001953,0.1503906,-0.01708984,-0.4960938
1530,-2.375,-1.875,0.25,-0.06591797,-0.08935547,1.005859,0.1503906,-0.01708984,-0.4960938
1532,-2.0625,-1.75,0.9375,-0.05029297,-0.08154297,0.9907227,0.1503906,-0.01708984,-0.4960938
1533,-2.3125,-2.625,0.6875,-0.06591797,-0.06982422,1.001953,0.1503906,-0.01708984,-0.4960938
1535,-2.875,-2.3125,0.4375,-0.06982422,-0.05029297,0.9868164,0.1503906,-0.01708984,-0.4960938
1536,-2.75,-3,1.25,-0.06201172,-0.09326172,0.9907227,0.1435547,-0.01269531,-0.5029297
1538,-3,-2.0625,0.8125,-0.04638672,-0.05029297,0.9790039,0.1435547,-0.01269531,-0.5029297
1539,-2.8125,-2.4375,1.3125,-0.06591797,-0.06591797,0.9985352,0.1435547,-0.01269531,-0.5029297
1541,-2.4375,-2.125,0.625,-0.06591797,-0.08154297,0.9907227,0.1479492,-0.01708984,-0.5053711
1542,-1.625,-1.9375,1.25,-0.04638672,-0.07763672,1.009766,0.1479492,-0.01708984,-0.5053711
1544,-1.3125,-1.75,0.3125,-0.06591797,-0.08154297,0.9985352,0.1479492,-0.01708984,-0.5053711
1547,-0.6875,-2.3125,0.0625,-0.06201172,-0.06982422,1.009766,0.1435547,-0.02587891,-0.4936523
1549,-1.25,-1.4375,-0.1875,-0.05419922,-0.1010742,1.001953,0.1435547,-0.02587891,-0.4936523
1550,-0.9375,-1.4375,-0.6875,-0.05029297,-0.07373047,0.9829102,0.1435547,-0.02587891,-0.4936523
1552,-1.375,-1,-1.125,-0.06591797,-0.08544922,1.009766,0.1435547,-0.02587891,-0.4936523
1553,-1.6875,-0.625,-1.375,-0.05029297,-0.07373047,0.9985352,0.1391602,-0.02148438,-0.5029297
1555,-1.4375,0.0625,-1.75,-0.05029297,-0.07373047,0.9946289,0.1391602,-0.02148438,-0.5029297
1556,-0.875,0.1875,-2.5,-0.03076172,-0.09326172,1.017578,0.1391602,-0.02148438,-0.5029297
1558,-0.875,0.6875,-2.5,-0.05810547,-0.09326172,1.029297,0.1459961,-0.006347656,-0.5029297
1559,-1.125,1.375,-3.0625,-0.05419922,-0.05029297,1.025391,0.1459961,-0.006347656,-0.5029297
1561,-0.125,2.25,-3.1875,-0.05810547,-0.08154297,0.9985352,0.1459961,-0.006347656,-0.5029297
1562,0,2.0625,-3.4375,-0.05419922,-0.1088867,0.9907227,0.1479492,-0.01513672,-0.5126953
1564,-0.0625,2.8125,-3.1875,-0.04638672,-0.07373047,1.005859,0.1479492,-0.01513672,-0.5126953
1565,-0.5625,2.75,-3.625,-0.04638672,-0.08154297,1.001953,0.1479492,-0.01513672,-0.5126953
1567,-0.3125,3.125,-3.1875,-0.05810547,-0.07763672,1.001953,0.1479492,-0.01513672,-0.5126953
1568,0.0625,3.0625,-3.5625,-0.04638672,-0.07763672,1.009766,0.1479492,-0.01513672,-0.5126953
1570,0.625,2.8125,-3.375,-0.04638672,-0.07763672,1.001953,0.1479492,-0.01513672,-0.5126953
1571,0.5625,2.625,-3.6875,-0.05810547,-0.07763672,0.9907227,0.1479492,-0.01513672,-0.5126953
1573,0.8125,1.75,-3.5625,-0.06201172,-0.08154297,1.013672,0.1435547,-0.008300781,-0.5102539
1574,0.875,1.5625,-3.1875,-0.03857422,-0.09716797,1.021484,0.1435547,-0.008300781,-0.5102539
1576,1.1875,0.875,-2.4375,-0.05419922,-0.09326172,0.9868164,0.1435547,-0.008300781,-0.5102539
1577,0.75,0.75,-2.0625,-0.05419922,-0.07763672,0.9907227,0.1435547,-0.01269531,-0.5029297
1579,0.625,0.125,-2.1875,-0.03076172,-0.07373047,0.9868164,0.1435547,-0.01269531,-0.5029297
1580,1.0625,-0.1875,-1.625,-0.05810547,-0.07373047,0.9750977,0.1435547,-0.01269531,-0.5029297
1582,0.5,-0.5625,-1.1875,-0.05419922,-0.07763672,1.001953,0.1479492,-0.01708984,-0.5029297
1583,0,-1.625,-0.8125,-0.05419922,-0.08935547,0.9907227,0.1479492,-0.01708984,-0.5029297
1585,0.375,-2,-0.375,-0.05419922,-0.1010742,1.025391,0.1479492,-0.01708984,-0.5029297
1586,0,-2.3125,-0.5,-0.05419922,-0.09326172,0.9750977,0.1479492,-0.01708984,-0.5029297
1588,-0.3125,-2.875,-0.9375,-0.04248047,-0.1088867,0.9790039,0.1459961,-0.01074219,-0.5102539
1589,-0.125,-3,-0.3125,-0.05029297,-0.09326172,0.9946289,0.1459961,-0.01074219,-0.5102539
1591,-0.375,-2.875,0.4375,-0.03076172,-0.1049805,0.9907227,0.1459961,-0.01074219,-0.5102539
1592,0.125,-3.3125,-0.125,-0.04248047,-0.09326172,1.001953,0.1411133,-0.01708984,-0.4985352
1594,0,-3.25,-0.3125,-0.05029297,-0.07373047,0.9868164,0.1411133,-0.01708984,-0.4985352
1595,-0.25,-3.5,0,-0.03857422,-0.09326172,1.005859,0.1411133,-0.01708984,-0.4985352
1597,0.3125,-3.4375,0.3125,-0.04248047,-0.09326172,1.001953,0.1503906,-0.02587891,-0.5029297
1598,0.4375,-3.0625,0.25,-0.05029297,-0.09326172,0.9985352,0.1503906,-0.02587891,-0.5029297
1600,0,-3.25,0.0625,-0.04638672,-0.09326172,0.9985352,0.1503906,-0.02587891,-0.5029297
1601,0.1875,-3.125,0.625,-0.03857422,-0.09326172,1.001953,0.1503906,-0.02587891,-0.5029297
1603,0.5625,-2.9375,0.5,-0.05419922,-0.09326172,0.9790039,0.1503906,-0.02587891,-0.5029297
1604,1,-2.125,0.5,-0.05419922,-0.09326172,1.005859,0.1503906,-0.02587891,-0.5029297
1606,1.125,-1.8125,0,-0.05419922,-0.09716797,1.013672,0.1503906,-0.02587891,-0.5029297
1607,1.125,-0.625,0.5,-0.05810547,-0.07763672,0.9985352,0.1411133,-0.01074219,-0.5029297
1609,1.1875,-0.0625,-0.0625,-0.01904297,-0.06591797,0.9711914,0.1411133,-0.01074219,-0.5029297
1610,1.125,1,0.3125,-0.04248047,-0.06201172,0.9946289,0.1411133,-0.01074219,-0.5029297
1612,0.875,1,-0.25,-0.03466797,-0.06201172,0.9946289,0.1479492,-0.01269531,-0.4960938
1613,0.375,2,-1.5625,-0.04638672,-0.08544922,1.013672,0.1479492,-0.01269531,-0.4960938
1615,0.9375,2.8125,-1.25,-0.04248047,-0.05810547,1.001953,0.1479492,-0.01269531,-0.4960938
1616,0.8125,3.375,-1.6875,-0.04638672,-0.06201172,1.001953,0.1391602,-0.01513672,-0.5029297
1618,0.9375,3.9375,-2.375,-0.02685547,-0.06201172,0.9985352,0.1391602,-0.01513672,-0.5029297
1619,1.125,4.1875,-3,-0.05029297,-0.06591797,1.029297,0.1391602,-0.01513672,-0.5029297
1621,1.1875,5.25,-3.4375,-0.06591797,-0.06201172,0.9868164,0.1391602,-0.01513672,-0.5029297
1622,0.875,5.75,-3.3125,-0.05029297,-0.05810547,0.9985352,0.1479492,-0.01074219,-0.5004883
1624,0.75,6.3125,-3.6875,-0.04638672,-0.07373047,0.9868164,0.1479492,-0.01074219,-0.5004883
1625,1.25,6.3125,-3.5625,-0.04638672,-0.06201172,1.005859,0.1479492,-0.01074219,-0.5004883
1627,2.0625,6.4375,-3.8125,-0.04638672,-0.07763672,0.9985352,0.1459961,-0.01074219,-0.5053711
1628,1.375,6.4375,-4.0625,-0.04638672,-0.07763672,1.005859,0.1459961,-0.01074219,-0.5053711
1630,2.0625,5.75,-3.75,-0.06982422,-0.07763672,0.9985352,0.1459961,-0.01074219,-0.5053711
1631,1.4375,5.25,-3.5625,-0.06982422,-0.07763672,1.001953,0.1323242,-0.01269531,-0.5078125
1633,1.875,5.125,-2.9375,-0.06982422,-0.05810547,0.9985352,0.1323242,-0.01269531,-0.5078125
1634,1.3125,4.1875,-3.1875,-0.05419922,-0.08935547,1.013672,0.1323242,-0.01269531,-0.5078125
1636,1.375,3.625,-2.625,-0.05419922,-0.08154297,0.9946289,0.1323242,-0.01269531,-0.5078125
1637,1.5,3.0625,-1.5625,-0.04638672,-0.06201172,0.9750977,0.1323242,-0.01269531,-0.5078125
1639,1.0625,2.125,-1.375,-0.06201172,-0.08544922,0.9985352,0.1323242,-0.01269531,-0.5078125
1640,0.8125,1.75,-0.375,-0.05419922,-0.09326172,0.9907227,0.1323242,-0.01269531,-0.5078125
1642,0.5,0.875,-0.125,-0.04638672,-0.06982422,0.9868164,0.1459961,-0.02832031,-0.5053711
1643,0.625,-0.125,0.25,-0.04638672,-0.09326172,1.001953,0.1459961,-0.02832031,-0.5053711
1645,0,-1.625,0.6875,-0.05810547,-0.06591797,1.017578,0.1459961,-0.02832031,-0.5053711
1646,0.25,-1.75,1.1875,-0.05419922,-0.08154297,0.9868164,0.1459961,-0.01708984,-0.5029297
1648,0.375,-2.6875,1.6875,-0.04638672,-0.08935547,0.9868164,0.1459961,-0.01708984,-0.5029297
1649,0.9375,-4.0625,1.375,-0.05810547,-0.09716797,0.9868164,0.1459961,-0.01708984,-0.5029297
1651,0.75,-3.8125,1.8125,-0.03076172,-0.08935547,1.021484,0.1459961,-0.01513672,-0.5029297
1652,0.75,-4.75,1.875,-0.04638672,-0.08154297,0.9946289,0.1459961,-0.01513672,-0.5029297
1654,0.4375,-5.25,1.9375,-0.04638672,-0.09716797,1.021484,0.1459961,-0.01513672,-0.5029297
1655,0.6875,-5.3125,1.875,-0.06591797,-0.07763672,1.009766,0.1459961,-0.01513672,-0.5029297
1657,0.6875,-5.875,1.375,-0.05810547,-0.06201172,1.017578,0.1459961,-0.02832031,-0.5078125
1658,-0.25,-5.125,1.5625,-0.03466797,-0.06982422,1.001953,0.1459961,-0.02832031,-0.5078125
1660,0.0625,-5.125,1.125,-0.03076172,-0.09716797,1.021484,0.1459961,-0.02832031,-0.5078125
1661,-0.1875,-4.1875,0.4375,-0.05029297,-0.05810547,1.025391,0.1503906,-0.01513672,-0.5102539
1663,-0.75,-3.8125,0.5,-0.03857422,-0.04638672,1.033203,0.1503906,-0.01513672,-0.5102539
1664,-0.4375,-2.5,0.3125,-0.04248047,-0.06982422,1.029297,0.1503906,-0.01513672,-0.5102539
1666,-0.5625,-1.8125,0.0625,-0.02685547,-0.07373047,1.017578,0.1459961,-0.006347656,-0.4985352
1667,0,-1.25,0,-0.06591797,-0.07373047,0.9946289,0.1459961,-0.006347656,-0.4985352
1669,0.625,-0.125,-0.375,-0.05810547,-0.06982422,1.013672,0.1459961,-0.006347656,-0.4985352
1670,0.4375,0,-1.125,-0.03076172,-0.07763672,0.9985352,0.1459961,-0.006347656,-0.4985352
1672,1.0625,0.1875,-1.5625,-0.03857422,-0.05810547,1.009766,0.1459961,-0.006347656,-0.4985352
1673,1.375,1.1875,-1.875,-0.05810547,-0.04638672,1.013672,0.1459961,-0.006347656,-0.4985352
1675,1.625,1.125,-2.1875,-0.04638672,-0.07763672,1.021484,0.1459961,-0.006347656,-0.4985352
1676,1.125,2.3125,-2.6875,-0.05419922,-0.07373047,0.9907227,0.1411133,-0.01513672,-0.5053711
1678,0.5625,3.25,-2.4375,-0.05810547,-0.06982422,0.9985352,0.1411133,-0.01513672,-0.5053711
1679,0.6875,3.75,-2.6875,-0.06591797,-0.06591797,1.017578,0.1411133,-0.01513672,-0.5053711
1681,1.0625,4.125,-2.3125,-0.06201172,-0.06591797,0.9829102,0.1503906,-0.01953125,-0.5029297
1682,1.25,5.125,-2.8125,-0.05810547,-0.08154297,0.9790039,0.1503906,-0.01953125,-0.5029297
1684,1.375,6.1875,-2.9375,-0.04248047,-0.09716797,0.9907227,0.1503906,-0.01953125,-0.5029297
1685,1.625,5.9375,-2.6875,-0.03466797,-0.06591797,1.001953,0.1435547,-0.02148438,-0.5078125
1687,1.5,6.3125,-2.25,-0.05029297,-0.07763672,0.9946289,0.1435547,-0.02148438,-0.5078125
1688,1.875,6.1875,-2.3125,-0.06591797,-0.07763672,0.9946289,0.1435547,-0.02148438,-0.5078125
1690,2.1875,5.8125,-2.125,-0.03076172,-0.07763672,1.013672,0.1435547,-0.02148438,-0.5078125
1691,2.25,5.6875,-1,-0.04638672,-0.09326172,0.9711914,0.1435547,-0.01513672,-0.5078125
1693,1.8125,4.875,-0.875,-0.04638672,-0.08544922,0.9946289,0.1435547,-0.01513672,-0.5078125
1694,1.875,4.75,0.375,-0.03857422,-0.07373047,0.9907227,0.1435547,-0.01513672,-0.5078125
1696,1.5,4.0625,0.8125,-0.06591797,-0.09716797,0.9868164,0.1503906,-0.01953125,-0.5029297
1697,1,3.625,1.25,-0.05419922,-0.1010742,0.9790039,0.1503906,-0.01953125,-0.5029297
1699,1.5,3,1.8125,-0.06982422,-0.09716797,0.9829102,0.1503906,-0.01953125,-0.5029297
1700,1.9375,2.375,1.875,-0.03076172,-0.08154297,0.9985352,0.1503906,-0.02587891,-0.5053711
1702,2.1875,2.1875,1.9375,-0.04248047,-0.07763672,0.9829102,0.1503906,-0.02587891,-0.5053711
1703,1.875,1.625,2.625,-0.06591797,-0.07763672,1.005859,0.1503906,-0.02587891,-0.5053711
1705,1.125,0.9375,2.625,-0.05029297,-0.07373047,0.9868164,0.1503906,-0.02587891,-0.5053711
1706,1.125,0.5,2.5,-0.04638672,-0.05029297,1.001953,0.1503906,-0.02587891,-0.5053711
1708,0.625,0,2,-0.05419922,-0.06201172,0.9829102,0.1503906,-0.02587891,-0.5053711
1709,0.4375,-0.625,1.875,-0.03076172,-0.06201172,1.001953,0.1503906,-0.02587891,-0.5053711
1711,0.25,-0.8125,1.5625,-0.03076172,-0.05810547,0.9829102,0.1459961,-0.01708984,-0.5004883
1712,0.375,-1.5625,1.125,-0.05419922,-0.06591797,0.9907227,0.1459961,-0.01708984,-0.5004883
1714,0.8125,-1.9375,0.3125,-0.05419922,-0.06201172,0.9829102,0.1459961,-0.01708984,-0.5004883
1715,0.5,-2.5625,0.25,-0.03857422,-0.05810547,1.013672,0.1479492,-0.01269531,-0.5029297
1717,0.4375,-2.625,0,-0.04638672,-0.05810547,1.029297,0.1479492,-0.01269531,-0.5029297
1718,0.1875,-3.0625,-0.3125,-0.06591797,-0.05810547,1.005859,0.1479492,-0.01269531,-0.5029297
1720,0.125,-2.625,-1,-0.04248047,-0.06591797,1.017578,0.1411133,-0.01074219,-0.5078125
1721,0.0625,-2.4375,-0.875,-0.06591797,-0.06982422,1.005859,0.1411133,-0.01074219,-0.5078125
1723,0.5625,-2.875,-1.125,-0.07373047,-0.07373047,0.9868164,0.1411133,-0.01074219,-0.5078125
1724,0.5625,-2.875,-1.875,-0.04248047,-0.06591797,1.013672,0.1411133,-0.01074219,-0.5078125
1726,0.4375,-2.625,-1.875,-0.06201172,-0.09326172,0.9907227,0.1435547,-0.01708984,-0.5029297
1727,0.8125,-2.375,-2.125,-0.05810547,-0.07763672,1.009766,0.1435547,-0.01708984,-0.5029297
1729,0.3125,-2.0625,-1.8125,-0.05029297,-0.07763672,1.009766,0.1435547,-0.01708984,-0.5029297
1730,0.25,-1.5,-2.0625,-0.04638672,-0.08544922,1.017578,0.1503906,-0.02587891,-0.5053711
1732,0,-1.25,-2.1875,-0.05419922,-0.07373047,1.013672,0.1503906,-0.02587891,-0.5053711
1733,1.0625,-1.125,-1.875,-0.05419922,-0.07373047,1.005859,0.1503906,-0.02587891,-0.5053711
1735,1.125,-1.5625,-1.625,-0.04638672,-0.07763672,0.9985352,0.1411133,-0.02392578,-0.5151367
1736,1.0625,-1.4375,-1,-0.05810547,-0.06982422,0.9985352,0.1411133,-0.02392578,-0.5151367
1738,1.6875,-1.375,-1.375,-0.04248047,-0.07763672,1.001953,0.1411133,-0.02392578,-0.5151367
1739,1.0625,-1.25,-0.8125,-0.04248047,-0.08154297,0.9868164,0.1411133,-0.02392578,-0.5151367
1741,1.0625,-1.5,-0.9375,-0.05419922,-0.07373047,0.9868164,0.1411133,-0.02392578,-0.5151367
1742,0.5625,-0.6875,-0.8125,-0.04638672,-0.06591797,1.029297,0.1411133,-0.02392578,-0.5151367
1744,1.75,-0.25,-0.3125,-0.06591797,-0.09326172,1.013672,0.1411133,-0.02392578,-0.5151367
1745,1.125,-1.0625,0.3125,-0.05810547,-0.09326172,0.9711914,0.1435547,-0.02587891,-0.5004883
1747,0.5625,-0.25,0.75,-0.05419922,-0.09326172,0.9946289,0.1435547,-0.02587891,-0.5004883
1748,0.5,-0.3125,1.125,-0.05810547,-0.08935547,0.9946289,0.1435547,-0.02587891,-0.5004883
1750,-0.3125,-0.125,1,-0.03857422,-0.07763672,0.9750977,0.1479492,-0.01269531,-0.5126953
1751,-0.5625,0.1875,1.125,-0.03076172,-0.09326172,1.005859,0.1479492,-0.01269531,-0.5126953
1753,-0.375,0.25,1.1875,-0.05810547,-0.07763672,1.009766,0.1479492,-0.01269531,-0.5126953
1754,-0.625,0.375,1.4375,-0.05029297,-0.06201172,0.9985352,0.1435547,-0.01953125,-0.5102539
1756,-0.0625,0.375,1.625,-0.03466797,-0.07763672,0.9946289,0.1435547,-0.01953125,-0.5102539
1757,1,0,0.875,-0.03076172,-0.07373047,1.029297,0.1435547,-0.01953125,-0.5102539
1759,1,0,0.75,-0.02685547,-0.04248047,1.009766,0.1435547,-0.01953125,-0.5102539
1760,0.625,0.125,0.4375,-0.03857422,-0.06982422,0.9985352,0.1479492,-0.02148438,-0.4985352
1762,1.1875,0.375,0.25,-0.04248047,-0.09716797,1.005859,0.1479492,-0.02148438,-0.4985352
1763,0.25,0.5625,0.6875,-0.03857422,-0.06982422,1.013672,0.1479492,-0.02148438,-0.4985352
1765,0.8125,0.625,0.3125,-0.06591797,-0.06982422,1.013672,0.1435547,-0.02832031,-0.5053711
1766,1.125,0,0.5625,-0.03076172,-0.07763672,1.009766,0.1435547,-0.02832031,-0.5053711
1768,1.4375,0.25,0.5,-0.06591797,-0.05810547,1.013672,0.1435547,-0.02832031,-0.5053711
1769,1.125,-0.6875,0.1875,-0.05029297,-0.09326172,1.013672,0.1459961,-0.01953125,-0.5029297
1771,1.25,-0.6875,0,-0.04638672,-0.08154297,0.9868164,0.1459961,-0.01953125,-0.5029297
1772,1.25,-0.75,-0.625,-0.04248047,-0.06591797,1.009766,0.1459961,-0.01953125,-0.5029297
1774,1.6875,-0.1875,-0.6875,-0.05810547,-0.07763672,1.009766,0.1459961,-0.01953125,-0.5029297
1775,1.5,-0.125,-0.5625,-0.07763672,-0.08544922,1.017578,0.1459961,-0.01953125,-0.5029297
1777,1.4375,0.0625,-0.25,-0.05419922,-0.05029297,1.013672,0.1459961,-0.01953125,-0.5029297
1778,1.3125,0,0,-0.05810547,-0.05419922,1.013672,0.1459961,-0.01953125,-0.5029297
1780,1.875,0.125,-0.0625,-0.05810547,-0.05029297,1.021484,0.1459961,-0.01513672,-0.5053711
1781,1.375,0,0.1875,-0.03076172,-0.08544922,1.001953,0.1459961,-0.01513672,-0.5053711
1783,0.9375,0,-0.1875,-0.05419922,-0.07763672,1.013672,0.1459961,-0.01513672,-0.5053711
1784,1.125,0.4375,0.0625,-0.05810547,-0.08154297,0.9985352,0.1435547,-0.02832031,-0.4960938
1786,1,0,-0.125,-0.06591797,-0.06201172,1.013672,0.1435547,-0.02832031,-0.4960938
1787,0.8125,0.4375,0.375,-0.04638672,-0.08154297,0.9790039,0.1435547,-0.02832031,-0.4960938
1789,0.4375,0.4375,1.25,-0.05029297,-0.09326172,0.9946289,0.1503906,-0.01708984,-0.5126953
1790,0.25,0.6875,0.875,-0.05810547,-0.08154297,0.9985352,0.1503906,-0.01708984,-0.5126953
1792,1.25,0.6875,1.1875,-0.06591797,-0.06982422,1.009766,0.1503906,-0.01708984,-0.5126953
1793,0.8125,0.75,1.125,-0.05419922,-0.06982422,1.001953,0.1503906,-0.01708984,-0.5126953
1795,0.875,0.75,1.3125,-0.05029297,-0.07373047,0.9946289,0.1411133,-0.02392578,-0.5102539
1796,1.375,0.375,0.875,-0.06591797,-0.07763672,0.9985352,0.1411133,-0.02392578,-0.5102539
1798,0.6875,0.8125,0.5625,-0.03076172,-0.07763672,0.9868164,0.1411133,-0.02392578,-0.5102539
1799,1.25,0.9375,0.875,-0.05029297,-0.09326172,0.9790039,0.1435547,-0.02148438,-0.5053711
1801,1,0.625,0.9375,-0.06591797,-0.06591797,0.9985352,0.1435547,-0.02148438,-0.5053711
1802,0.5625,1.125,0.6875,-0.03076172,-0.07373047,1.001953,0.1435547,-0.02148438,-0.5053711
1804,0.5,1.375,0.3125,-0.04638672,-0.08154297,0.9829102,0.1503906,-0.02392578,-0.5029297
1805,0.5,1.4375,-0.3125,-0.06201172,-0.05810547,1.001953,0.1503906,-0.02392578,-0.5029297
1807,1.125,2.1875,-0.6875,-0.06201172,-0.07373047,1.005859,0.1503906,-0.02392578,-0.5029297
1808,1.1875,2.1875,-0.3125,-0.06982422,-0.06591797,0.9946289,0.1503906,-0.02392578,-0.5029297
1810,0.875,2.3125,-0.8125,-0.07373047,-0.07763672,0.9985352,0.1503906,-0.02392578,-0.5029297
1811,1.25,2.375,-1.25,-0.05810547,-0.05810547,1.021484,0.1503906,-0.02392578,-0.5029297
1813,2.1875,3.0625,-0.875,-0.06591797,-0.04638672,1.013672,0.1503906,-0.02392578,-0.5029297
1814,1.9375,3.0625,-1,-0.03076172,-0.05810547,1.005859,0.1503906,-0.02392578,-0.5029297
1816,2,3,-1.5,-0.05029297,-0.06982422,0.9946289,0.1503906,-0.02392578,-0.5029297
1817,2.375,3.25,-0.5625,-0.06591797,-0.05810547,0.9985352,0.1503906,-0.02392578,-0.5029297
1819,1.9375,3.875,-0.3125,-0.08154297,-0.06591797,1.021484,0.1459961,-0.02832031,-0.5004883
1820,2.0625,3.375,-0.125,-0.05810547,-0.07373047,1.013672,0.1459961,-0.02832031,-0.5004883
1822,2.25,3.3125,-0.25,-0.05419922,-0.08935547,0.9946289,0.1459961,-0.02832031,-0.5004883
1823,2.0625,3,0.0625,-0.05029297,-0.06591797,0.9868164,0.1411133,-0.02587891,-0.5029297
1825,1.875,2.3125,0.3125,-0.05810547,-0.09326172,1.001953,0.1411133,-0.02587891,-0.5029297
1826,2,2.5,0.5625,-0.03857422,-0.05029297,1.013672,0.1411133,-0.02587891,-0.5029297
1828,2.125,1.625,1,-0.05029297,-0.05810547,1.001953,0.1411133,-0.02587891,-0.5029297
1829,2.375,1.6875,1.1875,-0.05029297,-0.09326172,0.9946289,0.1459961,-0.01708984,-0.4985352
1831,2.8125,0.875,1.375,-0.05810547,-0.06201172,0.9907227,0.1459961,-0.01708984,-0.4985352
1832,1.875,1.125,1.625,-0.06201172,-0.07763672,1.005859,0.1459961,-0.01708984,-0.4985352
1834,2.1875,0,1,-0.03857422,-0.09716797,0.9985352,0.1479492,-0.02587891,-0.4985352
1835,2.8125,-0.625,1.5625,-0.04638672,-0.05810547,1.009766,0.1479492,-0.02587891,-0.4985352
1837,2.375,-0.625,1.125,-0.04248047,-0.05029297,1.001953,0.1479492,-0.02587891,-0.4985352
1838,2,-1.25,0.875,-0.05029297,-0.09326172,0.9946289,0.1435547,-0.01513672,-0.4985352
1840,2.1875,-1.625,0.5625,-0.04248047,-0.06591797,0.9946289,0.1435547,-0.01513672,-0.4985352
1841,2.25,-1.5,0.875,-0.04248047,-0.04638672,1.001953,0.1435547,-0.01513672,-0.4985352
1843,1.8125,-1.75,0.875,-0.05419922,-0.03857422,1.001953,0.1435547,-0.01513672,-0.4985352
1844,1.3125,-1.75,0.0625,-0.04638672,-0.05029297,0.9868164,0.1435547,-0.01513672,-0.4985352
1846,1.3125,-1.4375,0.25,-0.05810547,-0.05419922,1.009766,0.1435547,-0.01513672,-0.4985352
1847,0.75,-1.6875,0.4375,-0.04248047,-0.06201172,1.017578,0.1435547,-0.01513672,-0.4985352
1849,1.1875,-1.5625,-0.0625,-0.06201172,-0.04248047,1.009766,0.1479492,-0.02148438,-0.5078125
1850,1.5625,-1.4375,-0.25,-0.03076172,-0.08154297,0.9868164,0.1479492,-0.02148438,-0.5078125
1852,1.125,-2.3125,-1.0625,-0.03857422,-0.06201172,1.013672,0.1479492,-0.02148438,-0.5078125
1853,1.0625,-2.5625,-0.6875,-0.03857422,-0.06591797,1.001953,0.1523438,-0.02392578,-0.5078125
1855,0.625,-3,-0.4375,-0.05810547,-0.05810547,1.001953,0.1523438,-0.02392578,-0.5078125
1856,0.5625,-2.5625,-0.9375,-0.05810547,-0.06591797,1.017578,0.1523438,-0.02392578,-0.5078125
1858,0.4375,-2.9375,-0.625,-0.06591797,-0.06591797,1.017578,0.1503906,-0.03027344,-0.4960938
1859,0.125,-2.9375,-0.5,-0.07763672,-0.05419922,0.9946289,0.1503906,-0.03027344,-0.4960938
1861,0.5,-3.1875,-0.0625,-0.05810547,-0.06201172,1.021484,0.1503906,-0.03027344,-0.4960938
1862,0.625,-3.4375,0,-0.06982422,-0.06982422,1.005859,0.1503906,-0.03027344,-0.4960938
1864,0.375,-4.125,0,-0.05029297,-0.06201172,1.001953,0.1523438,-0.01708984,-0.4887695
1865,0.0625,-4.5625,-0.5,-0.06201172,-0.08154297,1.013672,0.1523438,-0.01708984,-0.4887695
1867,-0.125,-4.125,-0.4375,-0.05029297,-0.07763672,0.9946289,0.1523438,-0.01708984,-0.4887695
1868,-0.4375,-4.9375,-0.5,-0.04638672,-0.09326172,1.005859,0.1391602,-0.02392578,-0.5053711
1870,-0.25,-5.125,-0.1875,-0.05029297,-0.08154297,0.9985352,0.1391602,-0.02392578,-0.5053711
1871,-1.125,-5.25,-0.5625,-0.06201172,-0.08154297,0.9946289,0.1391602,-0.02392578,-0.5053711
1873,-1,-5.625,-0.3125,-0.04248047,-0.07763672,0.9985352,0.1435547,-0.02148438,-0.5078125
1874,-1,-4.875,-0.6875,-0.05029297,-0.07373047,1.001953,0.1435547,-0.02148438,-0.5078125
1876,-0.4375,-5.125,-0.75,-0.05029297,-0.08935547,1.001953,0.1435547,-0.02148438,-0.5078125
1877,-0.3125,-4.4375,-0.6875,-0.06591797,-0.08935547,1.001953,0.1435547,-0.02148438,-0.5078125
1879,-0.875,-4.125,-1.1875,-0.05419922,-0.07763672,1.005859,0.1435547,-0.02148438,-0.5078125
1880,-0.375,-3.625,-0.5,-0.05419922,-0.09326172,1.013672,0.1435547,-0.02148438,-0.5078125
1882,-0.125,-2.75,-0.5,-0.05029297,-0.07373047,1.021484,0.1435547,-0.02148438,-0.5078125
1883,0.4375,-2.125,-0.4375,-0.03466797,-0.08154297,1.009766,0.1435547,-0.01953125,-0.4985352
1885,0.625,-1.1875,-0.875,-0.05810547,-0.07763672,1.013672,0.1435547,-0.01953125,-0.4985352
1886,0.75,-1.0625,0.4375,-0.05029297,-0.09326172,1.005859,0.1435547,-0.01953125,-0.4985352
1888,1.5,-0.0625,-0.25,-0.04638672,-0.07763672,1.013672,0.1459961,-0.01708984,-0.4960938
1889,1.875,0.375,0.125,-0.05029297,-0.08544922,1.009766,0.1459961,-0.01708984,-0.4960938
1891,1.0625,1.0625,0.25,-0.03076172,-0.07373047,1.021484,0.1459961,-0.01708984,-0.4960938
1892,0.6875,1.8125,0.625,-0.06591797,-0.07373047,0.9907227,0.1411133,-0.02392578,-0.4960938
1894,0.875,2.625,0.625,-0.06591797,-0.05810547,1.033203,0.1411133,-0.02392578,-0.4960938
1895,0.75,2.8125,1.5,-0.05029297,-0.06591797,1.025391,0.1411133,-0.02392578,-0.4960938
1897,0.6875,3.5625,1,-0.04638672,-0.06201172,0.9868164,0.1411133,-0.02392578,-0.4960938
1898,0.875,3.875,1.25,-0.05419922,-0.05419922,1.009766,0.1367188,-0.01708984,-0.4960938
1900,0.625,3.875,0.8125,-0.05029297,-0.05029297,1.009766,0.1367188,-0.01708984,-0.4960938
1901,0.625,4.1875,0.9375,-0.06201172,-0.07373047,1.017578,0.1367188,-0.01708984,-0.4960938
1903,0.4375,4.125,0.5,-0.05029297,-0.05419922,1.025391,0.1459961,-0.01269531,-0.5078125
1904,0.4375,4.25,1,-0.06591797,-0.05810547,1.021484,0.1459961,-0.01269531,-0.5078125
1906,1.0625,4.125,0.375,-0.02685547,-0.06201172,1.017578,0.1459961,-0.01269531,-0.5078125
1907,0.875,3.875,0,-0.05029297,-0.06591797,0.9985352,0.1479492,-0.02148438,-0.5078125
1909,0.9375,3.9375,-0.125,-0.05419922,-0.08154297,0.9907227,0.1479492,-0.02148438,-0.5078125
1910,-0.1875,3.5,-0.375,-0.04248047,-0.06982422,1.001953,0.1479492,-0.02148438,-0.5078125
1912,-0.1875,3,-0.75,-0.05419922,-0.07763672,0.9946289,0.1479492,-0.02148438,-0.5078125
1913,-0.0625,2.6875,-1.4375,-0.05029297,-0.07373047,1.001953,0.1479492,-0.02148438,-0.5078125
1915,-0.0625,2.4375,-1.25,-0.06201172,-0.07763672,1.013672,0.1479492,-0.02148438,-0.5078125
1916,0.25,2.0625,-1.9375,-0.03857422,-0.06591797,1.037109,0.1479492,-0.02148438,-0.5078125
1918,0.75,1.3125,-1.875,-0.05810547,-0.05810547,1.009766,0.1459961,-0.03027344,-0.5102539
1919,0.25,0.6875,-2,-0.04638672,-0.05810547,0.9946289,0.1459961,-0.03027344,-0.5102539
1921,-0.25,0.5,-1.5,-0.04638672,-0.06982422,0.9985352,0.1459961,-0.03027344,-0.5102539
1922,0.0625,-0.875,-1.3125,-0.05029297,-0.07763672,1.009766,0.1459961,-0.02587891,-0.5078125
1924,-0.6875,-1.25,-1.0625,-0.04638672,-0.06201172,0.9750977,0.1459961,-0.02587891,-0.5078125
1925,-1.0625,-2.25,-1.0625,-0.05810547,-0.06982422,1.009766,0.1459961,-0.02587891,-0.5078125
1927,-0.5,-2.75,-0.6875,-0.05419922,-0.09326172,0.9829102,0.1459961,-0.02392578,-0.5029297
1928,-0.6875,-3.5,-0.375,-0.05810547,-0.05419922,0.9946289,0.1459961,-0.02392578,-0.5029297
1930,-0.9375,-3.4375,-0.1875,-0.05029297,-0.05029297,1.017578,0.1459961,-0.02392578,-0.5029297
1933,-2,-4.0625,0.125,-0.05029297,-0.07763672,1.029297,0.1459961,-0.02392578,-0.5029297
1935,-1.875,-4.1875,-0.125,-0.05419922,-0.06982422,1.013672,0.1479492,-0.02587891,-0.5004883
1936,-1.5625,-5,-0.125,-0.04638672,-0.05810547,1.013672,0.1479492,-0.02587891,-0.5004883
1938,-1.6875,-4.875,0.3125,-0.04638672,-0.06591797,1.021484,0.1479492,-0.02587891,-0.5004883
1939,-1.625,-4.875,0,-0.02294922,-0.05810547,1.009766,0.1367188,-0.02148438,-0.5078125
1941,-2.125,-5,0,-0.04638672,-0.06591797,1.001953,0.1367188,-0.02148438,-0.5078125
1942,-2.1875,-4.6875,0.375,-0.03466797,-0.06201172,1.025391,0.1367188,-0.02148438,-0.5078125
1944,-1.8125,-5.0625,0.5,-0.03857422,-0.07373047,0.9946289,0.1367188,-0.02148438,-0.5053711
1945,-1.875,-5.0625,0.125,-0.04248047,-0.05029297,0.9946289,0.1367188,-0.02148438,-0.5053711
1947,-1.5625,-4.8125,-0.0625,-0.05029297,-0.06591797,1.021484,0.1367188,-0.02148438,-0.5053711
1948,-1.9375,-4.4375,0,-0.03857422,-0.06591797,1.013672,0.1367188,-0.02148438,-0.5053711
1950,-2.0625,-4.4375,-0.125,-0.03857422,-0.05810547,1.001953,0.1367188,-0.02148438,-0.5053711
1951,-1.25,-3.6875,0.3125,-0.04638672,-0.04638672,1.001953,0.1367188,-0.02148438,-0.5053711
1953,-0.3125,-3.625,-0.3125,-0.05029297,-0.06982422,0.9985352,0.1367188,-0.02148438,-0.5053711
1954,-0.625,-3.3125,0,-0.05029297,-0.07763672,0.9985352,0.1479492,-0.02148438,-0.5004883
1956,-0.9375,-3,0,-0.04248047,-0.04638672,1.005859,0.1479492,-0.02148438,-0.5004883
1957,-0.75,-1.9375,-0.4375,-0.05029297,-0.07373047,1.013672,0.1479492,-0.02148438,-0.5004883
1959,-0.5625,-0.6875,-0.125,-0.05419922,-0.07373047,0.9946289,0.1435547,-0.01708984,-0.5004883
1960,-0.5,-0.5,0,-0.05810547,-0.07763672,1.001953,0.1435547,-0.01708984,-0.5004883
1962,-0.9375,0.625,0,-0.05419922,-0.05810547,0.9868164,0.1435547,-0.01708984,-0.5004883
1963,-1.0625,0.375,0.3125,-0.05419922,-0.05810547,0.9946289,0.1435547,-0.02148438,-0.5004883
1965,-0.0625,1.0625,0.375,-0.03076172,-0.07373047,0.9907227,0.1435547,-0.02148438,-0.5004883
1966,0,1.25,0.3125,-0.04248047,-0.06201172,1.001953,0.1435547,-0.02148438,-0.5004883
1968,0.125,1.9375,0,-0.05029297,-0.06591797,0.9829102,0.1435547,-0.02148438,-0.5004883
1969,0.5625,1.9375,0.0625,-0.05810547,-0.06982422,0.9829102,0.1523438,-0.03027344,-0.5029297
1971,0.0625,2.3125,0.1875,-0.03466797,-0.09716797,0.9868164,0.1523438,-0.03027344,-0.5029297
1972,-0.1875,2.1875,0.8125,-0.04638672,-0.07373047,0.9829102,0.1523438,-0.03027344,-0.5029297
1974,0.5,2,0.875,-0.04638672,-0.08154297,0.9790039,0.1435547,-0.02148438,-0.4985352
1975,0.4375,2.1875,0.8125,-0.04248047,-0.06201172,0.9672852,0.1435547,-0.02148438,-0.4985352
1977,-0.125,1.8125,1.125,-0.06201172,-0.05810547,0.9907227,0.1435547,-0.02148438,-0.4985352
1978,-0.3125,1.625,1.1875,-0.03076172,-0.05810547,1.009766,0.1435547,-0.02832031,-0.5053711
1980,-0.25,1.0625,1.0625,-0.05419922,-0.08154297,0.9750977,0.1435547,-0.02832031,-0.5053711
1981,-0.25,1.4375,1.5625,-0.05029297,-0.08544922,1.001953,0.1435547,-0.02832031,-0.5053711
1983,-0.3125,1,2.125,-0.04248047,-0.05029297,1.005859,0.1435547,-0.02832031,-0.5053711
1984,0.125,0.5,1.875,-0.03076172,-0.08154297,1.029297,0.1435547,-0.02832031,-0.5053711
1986,0.9375,0.75,1.875,-0.04638672,-0.05419922,1.001953,0.1435547,-0.02832031,-0.5053711
1987,0.9375,0,2,-0.05810547,-0.06591797,0.9907227,0.1435547,-0.02832031,-0.5053711
1989,0.6875,-0.5625,1.5,-0.03076172,-0.06201172,1.001953,0.1479492,-0.02392578,-0.5004883
1990,1.3125,-0.4375,1.6875,-0.04638672,-0.07763672,0.9985352,0.1479492,-0.02392578,-0.5004883
1992,0.9375,-1.25,1.625,-0.03466797,-0.06591797,1.001953,0.1479492,-0.02392578,-0.5004883
1993,-0.125,-1.6875,1.3125,-0.03857422,-0.06591797,0.9907227,0.1411133,-0.01513672,-0.4838867
1995,0,-1.8125,0.6875,-0.04638672,-0.09326172,0.9829102,0.1411133,-0.01513672,-0.4838867
1996,-0.0625,-2.125,0.4375,-0.06591797,-0.07373047,1.001953,0.1411133,-0.01513672,-0.4838867
1998,0,-2.6875,0.5625,-0.05029297,-0.07373047,0.9907227,0.1411133,-0.02587891,-0.4960938
1999,0.0625,-2.1875,0.375,-0.05029297,-0.09326172,1.005859,0.1411133,-0.02587891,-0.4960938
2001,0,-2.625,0.3125,-0.05029297,-0.08544922,0.9868164,0.1411133,-0.02587891,-0.4960938
2002,0.375,-2.25,0,-0.06591797,-0.06201172,0.9946289,0.1411133,-0.02587891,-0.4960938
