Packet number,Gyroscope X (deg/s),Gyroscope Y (deg/s),Gyroscope Z (deg/s),Accelerometer X (g),Accelerometer Y (g),Accelerometer Z (g),Magnetometer X (G),Magnetometer Y (G),Magnetometer Z (G)
113,-0.9375,-1.25,0.875,0.01904297,-0.05224609,0.9780273,0.2099609,0.03125,-0.4487305
115,-0.9375,-1.25,0.875,0.01904297,-0.05224609,0.9780273,0.2099609,0.03125,-0.4487305
116,-0.9375,-1.875,0.25,0.01904297,-0.06787109,0.9975586,0.2099609,0.03125,-0.4487305
118,-1.3125,-2,0.125,0.02685547,-0.03271484,0.9897461,0.2148438,0.04101563,-0.4536133
119,-1.75,-2.125,0,0.003417969,-0.03271484,0.9936523,0.2148438,0.04101563,-0.4536133
121,-1.5625,-2.3125,-0.1875,0,-0.009277344,1.020508,0.2148438,0.04101563,-0.4536133
122,-1.25,-2.1875,-0.0625,-0.00390625,-0.02880859,1.020508,0.2148438,0.04101563,-0.4536133
124,-1,-1.9375,-0.0625,0.01123047,-0.03271484,1.001465,0.2148438,0.04101563,-0.4536133
125,-0.8125,-1.6875,0.0625,-0.0078125,-0.04443359,1.009277,0.2148438,0.04101563,-0.4536133
127,-0.625,-1.3125,0,0.01513672,-0.03271484,1.001465,0.2148438,0.04101563,-0.4536133
128,-0.875,-1.0625,0.375,0.007324219,-0.03271484,0.9819336,0.2124023,0.03857422,-0.4384766
130,-0.8125,-0.625,0.4375,0.003417969,-0.02490234,1.005371,0.2124023,0.03857422,-0.4384766
131,-1.1875,-0.625,0.625,-0.00390625,-0.05615234,1.012695,0.2124023,0.03857422,-0.4384766
133,-1.4375,-0.6875,0.625,0.02294922,-0.04052734,1.009277,0.2050781,0.03125,-0.4384766
134,-1.625,-1.0625,0.8125,0,-0.05224609,0.9858398,0.2050781,0.03125,-0.4384766
136,-1.625,-1,0.6875,0.03076172,-0.04052734,0.9936523,0.2050781,0.03125,-0.4384766
137,-2,-0.875,0.625,0.01904297,-0.06005859,0.9897461,0.2050781,0.03125,-0.4384766
139,-2.6875,-1.1875,0.625,0.01904297,-0.04443359,1.005371,0.2099609,0.03857422,-0.4414063
140,-2.875,-1.3125,0.625,0.02294922,-0.06005859,1.009277,0.2099609,0.03857422,-0.4414063
142,-3.125,-1.375,0.875,0.007324219,-0.03271484,1.001465,0.2099609,0.03857422,-0.4414063
143,-2.875,-1.9375,0.75,0.02685547,-0.06787109,1.005371,0.2021484,0.02587891,-0.4438477
145,-2.75,-2.375,0.5625,0.03515625,-0.06005859,0.9741211,0.2021484,0.02587891,-0.4438477
146,-2.5,-2.75,0.75,0.02294922,-0.04443359,0.9858398,0.2021484,0.02587891,-0.4438477
148,-2.25,-3.125,0.8125,0.01123047,-0.05224609,1.005371,0.2021484,0.02587891,-0.4438477
149,-2.125,-3,1.0625,-0.00390625,-0.05224609,1.001465,0.2021484,0.02587891,-0.4438477
151,-2.0625,-2.5,1.1875,0.02294922,-0.05224609,1.005371,0.2021484,0.02587891,-0.4438477
152,-2.125,-2.3125,1.4375,0.003417969,-0.05224609,1.001465,0.2021484,0.02587891,-0.4438477
154,-2.125,-2,1.1875,0.01904297,-0.04833984,1.001465,0.2148438,0.03613281,-0.4462891
155,-2.125,-1.5625,0.75,0.01123047,-0.03662109,1.005371,0.2148438,0.03613281,-0.4462891
157,-1.625,-1.3125,0.3125,0.003417969,-0.05615234,0.9858398,0.2148438,0.03613281,-0.4462891
158,-1.3125,-0.625,0.125,0.01513672,-0.02880859,0.9741211,0.2124023,0.03125,-0.4360352
160,-1.625,-0.5625,0.0625,0.01904297,-0.04052734,1.001465,0.2124023,0.03125,-0.4360352
161,-1.3125,-0.375,-0.375,-0.0078125,-0.04443359,1.001465,0.2124023,0.03125,-0.4360352
163,-1.5,0.125,-0.125,0.003417969,-0.05615234,0.9936523,0.2124023,0.03125,-0.4360352
164,-1.5625,0.25,-0.375,0.01123047,-0.06005859,0.9936523,0.2021484,0.02099609,-0.4438477
166,-1.6875,0.3125,-0.3125,0.003417969,-0.04833984,1.001465,0.2021484,0.02099609,-0.4438477
167,-2,0.5625,-0.375,0,-0.06396484,1.016602,0.2021484,0.02099609,-0.4438477
169,-2.25,0.625,0,0,-0.05615234,0.9819336,0.2050781,0.03857422,-0.4462891
170,-2.3125,1.125,0.4375,-0.00390625,-0.04833984,1.005371,0.2050781,0.03857422,-0.4462891
172,-2,1,0.625,0.01123047,-0.06005859,0.9897461,0.2050781,0.03857422,-0.4462891
173,-1.625,0.9375,0.75,0.01123047,-0.05224609,1.001465,0.2148438,0.03125,-0.4414063
175,-1.25,0.75,0.75,0.03076172,-0.05615234,0.9780273,0.2148438,0.03125,-0.4414063
176,-1.125,0.0625,0.4375,0.02294922,-0.05224609,0.9819336,0.2148438,0.03125,-0.4414063
178,-1.25,-0.25,0.8125,0.01904297,-0.03662109,1.001465,0.2148438,0.03125,-0.4414063
179,-1.3125,-1.125,0.8125,0.03515625,-0.06005859,0.9975586,0.2021484,0.02587891,-0.4462891
181,-1.4375,-1.1875,0.75,0.01513672,-0.05615234,0.9936523,0.2021484,0.02587891,-0.4462891
182,-1.75,-1.8125,0.8125,0.01904297,-0.06787109,0.9897461,0.2021484,0.02587891,-0.4462891
184,-2,-2.125,0.875,0.02294922,-0.03662109,0.9819336,0.2050781,0.02099609,-0.4511719
185,-2.125,-2.0625,0.8125,0.02294922,-0.05224609,1.005371,0.2050781,0.02099609,-0.4511719
187,-1.75,-1.8125,0.75,0.01123047,-0.03271484,1.001465,0.2050781,0.02099609,-0.4511719
188,-1.375,-1.6875,0.5625,0.01904297,-0.06396484,1.012695,0.2050781,0.02099609,-0.4511719
190,-0.8125,-1.75,0.0625,0.01904297,-0.05224609,0.9819336,0.2050781,0.02099609,-0.4511719
191,-0.3125,-1.5625,0.125,0.003417969,-0.03271484,0.9897461,0.2050781,0.02099609,-0.4511719
193,-0.3125,-1,0,0.01904297,-0.03271484,1.001465,0.2050781,0.02099609,-0.4511719
194,-0.0625,-0.6875,0.25,0.01904297,-0.05224609,1.009277,0.2177734,0.03857422,-0.4462891
196,0,-0.0625,0.125,0.01123047,-0.05615234,1.020508,0.2177734,0.03857422,-0.4462891
197,-0.75,0,0.0625,0.02294922,-0.06787109,0.9858398,0.2177734,0.03857422,-0.4462891
199,-1.5,0.4375,-0.0625,0.01904297,-0.06005859,1.012695,0.2124023,0.03369141,-0.4487305
200,-1.75,0.375,-0.125,0.02685547,-0.04052734,1.012695,0.2124023,0.03369141,-0.4487305
202,-1.8125,0.3125,-0.5625,0.02294922,-0.02099609,1.005371,0.2124023,0.03369141,-0.4487305
203,-1.6875,0.5625,-0.375,0.02685547,-0.06005859,1.001465,0.2124023,0.03369141,-0.4487305
205,-2,0.25,-0.75,0.03076172,-0.05224609,0.9936523,0.2050781,0.04345703,-0.4360352
206,-2.4375,0.125,-1,0.03076172,-0.05615234,1.005371,0.2050781,0.04345703,-0.4360352
208,-2.25,-0.1875,-1.375,0.01123047,-0.05615234,0.9858398,0.2050781,0.04345703,-0.4360352
210,-1.4375,-0.1875,-1.5,-0.01220703,-0.06396484,0.9897461,0.2021484,0.04345703,-0.4487305
212,-1.3125,-0.6875,-1.6875,0.01904297,-0.05615234,0.9741211,0.2021484,0.04345703,-0.4487305
213,-0.6875,-0.8125,-1.375,0.003417969,-0.06396484,1.001465,0.2021484,0.04345703,-0.4487305
215,-1.1875,-0.6875,-1.3125,0.01123047,-0.07177734,0.9819336,0.2021484,0.04345703,-0.4487305
216,-1.4375,-0.375,-1.4375,0.01904297,-0.05224609,0.9975586,0.2021484,0.04345703,-0.4487305
218,-1.3125,-0.1875,-1.625,0.01513672,-0.06396484,0.9858398,0.2021484,0.04345703,-0.4487305
219,-0.8125,-0.0625,-1.75,0.01123047,-0.04443359,1.001465,0.2021484,0.04345703,-0.4487305
221,-0.4375,0.25,-1.8125,0,-0.02880859,0.9897461,0.2075195,0.04101563,-0.4384766
222,0,0.625,-1.75,0.01904297,-0.01708984,1.016602,0.2075195,0.04101563,-0.4384766
224,-0.375,1.1875,-1.5625,0.003417969,-0.03662109,1.032227,0.2075195,0.04101563,-0.4384766
225,-0.5,1.125,-1.5625,0.01513672,-0.02880859,1.005371,0.2050781,0.04345703,-0.4462891
227,-0.75,1.5,-1.125,0.003417969,-0.03662109,0.9819336,0.2050781,0.04345703,-0.4462891
228,-1.125,1.3125,-0.6875,0.01513672,-0.06787109,1.005371,0.2050781,0.04345703,-0.4462891
230,-1.5625,1.1875,-0.1875,0.01513672,-0.05224609,1.005371,0.2050781,0.04345703,-0.4462891
231,-1.3125,0.75,0.125,0.007324219,-0.05224609,1.020508,0.2124023,0.03125,-0.4438477
233,-0.75,0.25,0.3125,0.01123047,-0.04833984,0.9975586,0.2124023,0.03125,-0.4438477
234,-0.3125,-0.1875,0.375,0.01904297,-0.04443359,1.005371,0.2124023,0.03125,-0.4438477
236,-0.4375,-0.3125,0.75,-0.00390625,-0.06787109,0.9897461,0.2148438,0.03857422,-0.4462891
237,-0.625,-0.0625,1,0.01904297,-0.05615234,1.005371,0.2148438,0.03857422,-0.4462891
239,-0.25,0,1.4375,0.01123047,-0.04833984,0.9897461,0.2148438,0.03857422,-0.4462891
240,-0.3125,0,1.9375,0.01904297,-0.04052734,0.9936523,0.1923828,0.03369141,-0.4414063
242,-0.8125,0.0625,1.625,0.03076172,-0.05224609,1.005371,0.1923828,0.03369141,-0.4414063
243,-1.0625,0,1.375,0,-0.02880859,0.9897461,0.1923828,0.03369141,-0.4414063
245,-1.1875,-0.375,1.375,0.01904297,-0.04833984,1.001465,0.1923828,0.03369141,-0.4414063
246,-1.25,-0.625,0.9375,0.01904297,-0.05224609,1.012695,0.199707,0.04833984,-0.4438477
248,-0.625,-0.9375,0.6875,0.01123047,-0.04443359,1.001465,0.199707,0.04833984,-0.4438477
249,-0.25,-0.9375,0.5625,0.01513672,-0.04833984,0.9858398,0.199707,0.04833984,-0.4438477
251,-0.3125,-0.75,0.3125,0.01123047,-0.04052734,0.9858398,0.2075195,0.04101563,-0.4384766
252,-0.5625,-0.25,0.0625,0.02294922,-0.04443359,0.9858398,0.2075195,0.04101563,-0.4384766
254,-1,-0.0625,0.25,0.02294922,-0.06787109,1.005371,0.2075195,0.04101563,-0.4384766
255,-1.1875,0,0,0.01904297,-0.04833984,1.001465,0.2075195,0.04101563,-0.4384766
257,-0.8125,0.0625,-0.3125,0.01904297,-0.05224609,0.9936523,0.2075195,0.04101563,-0.4384766
258,-0.4375,0.3125,-0.5625,0.01904297,-0.05615234,0.9897461,0.2075195,0.04101563,-0.4384766
260,-0.3125,0.375,-0.5,0.01904297,-0.03271484,0.9975586,0.2075195,0.04101563,-0.4384766
261,-0.25,0.875,-0.625,0.01904297,-0.04833984,0.9780273,0.2124023,0.03857422,-0.4462891
263,-0.3125,1.3125,-0.5625,-0.00390625,-0.03662109,1.001465,0.2124023,0.03857422,-0.4462891
264,-0.75,1.25,-0.6875,-0.00390625,-0.05224609,1.016602,0.2124023,0.03857422,-0.4462891
266,-0.75,1.25,-0.5625,0.01513672,-0.05615234,1.005371,0.2099609,0.02587891,-0.4511719
267,-0.875,1.8125,-0.25,0.003417969,-0.05615234,1.016602,0.2099609,0.02587891,-0.4511719
269,-1.375,2.1875,0,0,-0.04052734,1.005371,0.2099609,0.02587891,-0.4511719
270,-1.25,2.5,-0.125,0.003417969,-0.03662109,0.9897461,0.2099609,0.02587891,-0.4511719
272,-1.25,2.875,-0.1875,0.02294922,-0.03662109,1.005371,0.2021484,0.03857422,-0.4462891
273,-0.9375,3.1875,-0.125,0,-0.04052734,1.024414,0.2021484,0.03857422,-0.4462891
275,-0.875,2.9375,-0.125,0.01123047,-0.04443359,0.9936523,0.2021484,0.03857422,-0.4462891
276,-1.0625,3.1875,0,0.007324219,-0.05615234,1.009277,0.2124023,0.04345703,-0.4462891
278,-0.875,3,0,-0.00390625,-0.03662109,0.9936523,0.2124023,0.04345703,-0.4462891
279,-1,3,0.5625,0.01123047,-0.07177734,1.02832,0.2124023,0.04345703,-0.4462891
281,-1.25,3,0.4375,0.01123047,-0.06396484,1.009277,0.2124023,0.04345703,-0.4462891
282,-0.875,3.125,0.875,0.02294922,-0.05615234,1.009277,0.2124023,0.04345703,-0.4462891
284,-0.5,2.875,0.9375,0.007324219,-0.04833984,1.001465,0.2124023,0.04345703,-0.4462891
285,-0.0625,2.9375,1.125,0.02294922,-0.07177734,1.005371,0.2124023,0.04345703,-0.4462891
287,0.25,2.9375,1.1875,0.01904297,-0.06396484,0.9819336,0.2075195,0.03857422,-0.4536133
288,-0.125,3.125,1.5,0.01904297,-0.07177734,0.9819336,0.2075195,0.03857422,-0.4536133
290,-0.4375,3.125,1.4375,0.01904297,-0.06005859,1.012695,0.2075195,0.03857422,-0.4536133
291,-0.875,3.625,1.8125,0.01513672,-0.05224609,0.9780273,0.2075195,0.03857422,-0.4487305
293,-0.4375,3.5625,1.9375,0.02294922,-0.06396484,0.9741211,0.2075195,0.03857422,-0.4487305
294,-0.1875,4.125,1.8125,0.02294922,-0.04443359,1.005371,0.2075195,0.03857422,-0.4487305
296,0.1875,4.25,1.6875,0,-0.06005859,1.001465,0.2075195,0.03857422,-0.4487305
297,-0.0625,4.375,1.5625,0.01123047,-0.06787109,1.005371,0.2099609,0.03369141,-0.4462891
299,-0.375,4.3125,1.875,0.01123047,-0.07177734,0.9780273,0.2099609,0.03369141,-0.4462891
300,-0.9375,4.3125,2,0.02685547,-0.06396484,0.9858398,0.2099609,0.03369141,-0.4462891
302,-1.4375,4.3125,1.75,0.01513672,-0.05224609,0.9707031,0.2124023,0.03369141,-0.4384766
303,-1.3125,3.625,1.3125,0.003417969,-0.06005859,0.9819336,0.2124023,0.03369141,-0.4384766
305,-1.1875,3.25,0.6875,0.01904297,-0.06005859,0.9897461,0.2124023,0.03369141,-0.4384766
307,-0.5625,2.6875,0.1875,0.02294922,-0.05224609,0.9741211,0.2050781,0.03125,-0.4414063
309,-0.625,2.25,-0.0625,0.007324219,-0.06787109,1.001465,0.2050781,0.03125,-0.4414063
310,-0.5625,2.25,-0.25,-0.0078125,-0.07177734,1.005371,0.2050781,0.03125,-0.4414063
312,-0.875,2.4375,-0.375,0.003417969,-0.05615234,1.016602,0.2050781,0.03125,-0.4414063
313,-0.9375,2.875,-0.5,0.01904297,-0.05224609,1.009277,0.2124023,0.03857422,-0.456543
315,-0.5625,2.9375,-0.3125,0.01904297,-0.05224609,1.020508,0.2124023,0.03857422,-0.456543
316,-0.5,3.25,-0.3125,0.01904297,-0.06005859,1.005371,0.2124023,0.03857422,-0.456543
318,-0.25,3.4375,-0.4375,0.007324219,-0.06005859,1.020508,0.2075195,0.04101563,-0.4462891
319,-0.125,3.9375,-0.25,-0.03173828,-0.05615234,0.9858398,0.2075195,0.04101563,-0.4462891
321,-0.5,4,-0.125,-0.0078125,-0.08349609,1.009277,0.2075195,0.04101563,-0.4462891
322,-0.9375,3.8125,-0.375,0,-0.04833984,1.020508,0.2075195,0.04101563,-0.4462891
324,-1,4,-0.375,0.007324219,-0.03662109,0.9975586,0.2075195,0.04101563,-0.4462891
325,-0.9375,3.875,0,0,-0.06787109,1.009277,0.2075195,0.04101563,-0.4462891
327,-1.1875,3.9375,0,0.01904297,-0.05224609,1.001465,0.2075195,0.04101563,-0.4462891
328,-1.5,4.375,0.375,0.01123047,-0.06787109,1.012695,0.2075195,0.02880859,-0.4438477
330,-1.5625,4,0.875,0.01904297,-0.05224609,1.009277,0.2075195,0.02880859,-0.4438477
331,-1.5625,4.0625,1,0.007324219,-0.06787109,1.009277,0.2075195,0.02880859,-0.4438477
333,-1.5625,3.625,1.0625,0,-0.05224609,0.9780273,0.2148438,0.03613281,-0.4462891
334,-1.625,3.0625,1.5625,0.007324219,-0.06005859,0.9819336,0.2148438,0.03613281,-0.4462891
336,-1.625,2.8125,1.4375,0.01513672,-0.04052734,0.9897461,0.2148438,0.03613281,-0.4462891
337,-1.875,2.8125,1.5625,0.01904297,-0.06005859,0.9936523,0.2148438,0.03613281,-0.4462891
339,-1.1875,2.3125,1.5,0.007324219,-0.04443359,0.9897461,0.2177734,0.03613281,-0.4414063
340,-0.5625,2.0625,1.25,-0.0078125,-0.04443359,1.005371,0.2177734,0.03613281,-0.4414063
342,0,2,1.1875,-0.01220703,-0.04443359,1.005371,0.2177734,0.03613281,-0.4414063
343,0.375,2.0625,0.9375,0.003417969,-0.06005859,0.9858398,0.2148438,0.04101563,-0.4414063
345,0.25,2.1875,1,-0.01611328,-0.06396484,1.005371,0.2148438,0.04101563,-0.4414063
346,-0.1875,2.5,0.6875,0.003417969,-0.04833984,1.001465,0.2148438,0.04101563,-0.4414063
348,0,2.6875,0.0625,0.007324219,-0.05224609,0.9858398,0.2148438,0.04101563,-0.4414063
349,0,3.1875,0,0.01904297,-0.05615234,0.9897461,0.2148438,0.04101563,-0.4414063
351,0.1875,3.5,-0.4375,0,-0.04443359,1.009277,0.2148438,0.04101563,-0.4414063
352,0.125,3.4375,-0.5625,0.01123047,-0.04833984,1.012695,0.2148438,0.04101563,-0.4414063
354,0.3125,3.875,-0.4375,0.01904297,-0.06396484,1.009277,0.2124023,0.04101563,-0.4462891
355,0.3125,4.0625,-0.75,0.01904297,-0.04833984,1.005371,0.2124023,0.04101563,-0.4462891
357,0.5625,4.1875,-0.8125,0.003417969,-0.06005859,0.9858398,0.2124023,0.04101563,-0.4462891
358,1,4.25,-1.1875,0.01513672,-0.04052734,0.9936523,0.2226563,0.03369141,-0.4438477
360,1,4.5625,-1.25,0.02685547,-0.02490234,1.020508,0.2226563,0.03369141,-0.4438477
361,1.625,4.5,-1.5,0,-0.04833984,1.001465,0.2226563,0.03369141,-0.4438477
363,1.9375,4.5625,-1.1875,0.007324219,-0.05615234,1.016602,0.2226563,0.03369141,-0.4438477
364,1.625,5,-1,0.01904297,-0.06396484,1.009277,0.2124023,0.04101563,-0.4438477
366,1.5625,5.3125,-1.1875,0.01904297,-0.04833984,1.005371,0.2124023,0.04101563,-0.4438477
367,1.625,5.5625,-1.125,-0.01611328,-0.04052734,0.9897461,0.2124023,0.04101563,-0.4438477
369,1.5625,5.75,-0.8125,0,-0.04052734,1.020508,0.2177734,0.04101563,-0.4462891
370,1.4375,5.75,-0.8125,-0.02001953,-0.03662109,1.012695,0.2177734,0.04101563,-0.4462891
372,1.125,6.125,-0.625,0.003417969,-0.05224609,1.012695,0.2177734,0.04101563,-0.4462891
373,1.25,6.125,-0.6875,-0.0078125,-0.05615234,0.9741211,0.2124023,0.03857422,-0.4462891
375,0.5625,6.5,-0.1875,0.003417969,-0.07568359,1.009277,0.2124023,0.03857422,-0.4462891
376,-0.0625,6.8125,-0.4375,0.003417969,-0.06005859,1.001465,0.2124023,0.03857422,-0.4462891
378,-0.5625,8.3125,-0.875,-0.00390625,-0.06787109,1.005371,0.2124023,0.03857422,-0.4462891
379,-1,7.5625,0.0625,0,-0.04052734,1.012695,0.2177734,0.04345703,-0.4414063
381,-0.6875,7.6875,0.25,-0.01611328,-0.06005859,1.001465,0.2177734,0.04345703,-0.4414063
382,0.5,7.0625,0,-0.00390625,-0.04443359,0.9819336,0.2177734,0.04345703,-0.4414063
384,1.5625,6.125,0.1875,0.003417969,-0.06005859,0.9780273,0.2202148,0.03369141,-0.4462891
385,1.75,5.375,0,-0.01220703,-0.04443359,1.009277,0.2202148,0.03369141,-0.4462891
387,1.6875,4.875,0,0.003417969,-0.04443359,0.9819336,0.2202148,0.03369141,-0.4462891
388,1.4375,4.875,0,-0.01611328,-0.05615234,0.9897461,0.2202148,0.03369141,-0.4462891
390,1.75,4.5625,-0.25,-0.01611328,-0.06787109,0.9780273,0.2202148,0.03369141,-0.4462891
391,2.125,4.3125,-0.5,-0.00390625,-0.06787109,0.9936523,0.2202148,0.03369141,-0.4462891
393,2.375,3.9375,-0.3125,-0.01220703,-0.05615234,0.9819336,0.2202148,0.03369141,-0.4462891
394,2.375,4,-0.0625,-0.01220703,-0.06396484,0.9741211,0.2177734,0.03369141,-0.4438477
396,2.125,4.0625,0,-0.01220703,-0.05224609,0.9936523,0.2177734,0.03369141,-0.4438477
397,2.125,4,-0.25,-0.02392578,-0.07177734,1.016602,0.2177734,0.03369141,-0.4438477
399,2.125,3.875,-0.0625,-0.03173828,-0.03271484,1.001465,0.2124023,0.02880859,-0.4360352
400,1.9375,3.8125,-0.125,-0.01611328,-0.06005859,1.001465,0.2124023,0.02880859,-0.4360352
402,2.3125,3.8125,0.1875,-0.01611328,-0.07177734,1.001465,0.2124023,0.02880859,-0.4360352
404,2.4375,4.0625,0.625,-0.01220703,-0.05224609,0.9858398,0.2124023,0.02880859,-0.4360352
406,1.75,3.9375,0.625,0.01123047,-0.06005859,0.9858398,0.2148438,0.04101563,-0.4414063
407,1.125,3.8125,0.4375,0.01904297,-0.07568359,0.9936523,0.2148438,0.04101563,-0.4414063
409,0.9375,3.5625,0.5625,0.003417969,-0.07568359,0.9780273,0.2148438,0.04101563,-0.4414063
410,0.0625,2.5625,0.75,-0.00390625,-0.04443359,1.009277,0.2124023,0.03369141,-0.4414063
412,-0.0625,1.6875,0.625,0.01904297,-0.06005859,0.9936523,0.2124023,0.03369141,-0.4414063
413,-0.0625,0.75,0.3125,0,-0.04443359,1.001465,0.2124023,0.03369141,-0.4414063
415,0.8125,0.0625,0.25,-0.01611328,-0.06005859,0.9858398,0.2124023,0.03369141,-0.4414063
416,1.25,-0.125,0,-0.02392578,-0.04443359,1.016602,0.2124023,0.03369141,-0.4414063
418,1.5625,-0.4375,-0.125,-0.02783203,-0.04833984,1.005371,0.2124023,0.03369141,-0.4414063
419,2.3125,-1,-0.125,-0.02001953,-0.03271484,0.9897461,0.2124023,0.03369141,-0.4414063
421,2.875,-0.9375,-0.5,-0.0078125,-0.02490234,0.9819336,0.2148438,0.03369141,-0.4414063
422,3.375,-1.1875,-0.8125,0,-0.03271484,0.9858398,0.2148438,0.03369141,-0.4414063
424,3.5625,-1,-0.625,0.003417969,-0.05224609,1.012695,0.2148438,0.03369141,-0.4414063
425,2.75,-0.375,-0.625,-0.02783203,-0.05224609,0.9780273,0.2148438,0.03857422,-0.4335938
427,2.3125,-0.1875,-0.5,0.003417969,-0.04443359,1.009277,0.2148438,0.03857422,-0.4335938
428,2.4375,-0.25,-0.5,-0.02001953,-0.05615234,1.001465,0.2148438,0.03857422,-0.4335938
430,2.25,-0.125,-0.5,-0.02783203,-0.04052734,0.9858398,0.2148438,0.03857422,-0.4335938
431,1.5625,-0.4375,-0.1875,-0.00390625,-0.04833984,0.9741211,0.2148438,0.03613281,-0.4384766
433,1.3125,-0.1875,-0.125,-0.01220703,-0.05615234,1.001465,0.2148438,0.03613281,-0.4384766
434,0.9375,-0.5,0.125,-0.00390625,-0.05615234,0.9780273,0.2148438,0.03613281,-0.4384766
436,1.25,-0.9375,0.0625,-0.01220703,-0.04833984,0.9858398,0.2148438,0.03369141,-0.4462891
437,1.5625,-1.25,0.4375,-0.03173828,-0.05615234,1.009277,0.2148438,0.03369141,-0.4462891
439,1.4375,-1.125,0.375,-0.00390625,-0.05615234,0.9780273,0.2148438,0.03369141,-0.4462891
440,1.3125,-1.25,0.1875,-0.01220703,-0.05615234,0.9936523,0.2124023,0.0234375,-0.4438477
442,1.75,-1,0.0625,-0.01220703,-0.04052734,1.016602,0.2124023,0.0234375,-0.4438477
443,1.625,-0.875,0.25,-0.02783203,-0.05224609,0.9819336,0.2124023,0.0234375,-0.4438477
445,1.75,-0.5,0.1875,-0.02392578,-0.06396484,0.9858398,0.2124023,0.0234375,-0.4438477
446,1.9375,-0.5,0.1875,-0.0078125,-0.04833984,0.9858398,0.2226563,0.02587891,-0.4589844
448,1.375,-0.1875,0.3125,-0.0078125,-0.06005859,1.016602,0.2226563,0.02587891,-0.4589844
449,1.1875,-0.4375,0.125,-0.02392578,-0.05224609,1.001465,0.2226563,0.02587891,-0.4589844
451,1.25,-0.875,0.1875,0.01123047,-0.05615234,0.9936523,0.2202148,0.03369141,-0.4414063
452,0.375,-0.8125,-0.125,-0.01611328,-0.04052734,1.001465,0.2202148,0.03369141,-0.4414063
454,0.1875,-0.6875,-0.125,-0.01611328,-0.07177734,0.9936523,0.2202148,0.03369141,-0.4414063
455,0.25,-1.0625,-0.0625,-0.01611328,-0.03662109,1.005371,0.2202148,0.03369141,-0.4414063
457,0.375,-1.0625,-0.3125,-0.01220703,-0.04443359,1.001465,0.2202148,0.03369141,-0.4414063
458,0.0625,-1.3125,0,-0.01220703,-0.04443359,0.9897461,0.2202148,0.03369141,-0.4414063
460,0.1875,-1.375,-0.3125,-0.00390625,-0.04443359,1.009277,0.2202148,0.03369141,-0.4414063
461,0.5,-1.625,-0.375,0,-0.05224609,1.009277,0.2226563,0.03613281,-0.4414063
463,0.5,-1.5625,-0.6875,0,-0.04833984,1.009277,0.2226563,0.03613281,-0.4414063
464,0.6875,-1.875,-0.875,-0.01220703,-0.04052734,0.9858398,0.2226563,0.03613281,-0.4414063
466,0.625,-2.0625,-0.875,-0.02392578,-0.05224609,0.9897461,0.2226563,0.03369141,-0.4487305
467,1.5625,-2.0625,-1.0625,-0.02001953,-0.03662109,1.009277,0.2226563,0.03369141,-0.4487305
469,1.8125,-1.9375,-1.1875,-0.00390625,-0.05615234,0.9819336,0.2226563,0.03369141,-0.4487305
470,2.5,-1.8125,-1.1875,-0.02001953,-0.06005859,1.012695,0.2226563,0.03369141,-0.4487305
472,2.6875,-1.3125,-1.4375,-0.03173828,-0.05224609,0.9936523,0.2148438,0.03369141,-0.4414063
473,2.875,-0.8125,-1.3125,-0.0078125,-0.04443359,0.9858398,0.2148438,0.03369141,-0.4414063
475,2.6875,-0.5625,-1.3125,0.007324219,-0.03662109,1.009277,0.2148438,0.03369141,-0.4414063
476,2.9375,0,-1,-0.02392578,-0.03662109,1.005371,0.2099609,0.04345703,-0.4462891
478,3.125,0.375,-1.125,-0.03173828,-0.05224609,1.005371,0.2099609,0.04345703,-0.4462891
479,2.6875,0.5625,-1,-0.00390625,-0.06005859,1.005371,0.2099609,0.04345703,-0.4462891
481,2.125,0.8125,-0.9375,0.003417969,-0.04833984,1.009277,0.2099609,0.04345703,-0.4462891
482,1.8125,1.1875,-1,-0.02001953,-0.04052734,0.9936523,0.2099609,0.04345703,-0.4462891
484,1.5,1.6875,-0.75,0,-0.06396484,1.001465,0.2099609,0.04345703,-0.4462891
485,1.5625,2.1875,-0.875,-0.02392578,-0.05224609,1.009277,0.2099609,0.04345703,-0.4462891
487,1.375,2,-0.75,-0.03173828,-0.06396484,0.9858398,0.2148438,0.03369141,-0.4438477
488,1.1875,2,-0.625,-0.01220703,-0.06396484,1.005371,0.2148438,0.03369141,-0.4438477
490,0.8125,2.1875,-0.5,0.01904297,-0.04443359,0.9897461,0.2148438,0.03369141,-0.4438477
491,0.75,1.5625,-0.875,0.007324219,-0.03662109,1.001465,0.2202148,0.02587891,-0.4360352
493,0.9375,0.875,-1.125,-0.00390625,-0.04052734,0.9858398,0.2202148,0.02587891,-0.4360352
494,1.5,0.3125,-1.4375,-0.01611328,-0.03271484,1.005371,0.2202148,0.02587891,-0.4360352
496,1.4375,-0.3125,-1.875,-0.0078125,-0.04052734,0.9741211,0.2202148,0.02587891,-0.4360352
497,1.25,-0.5625,-2,0.01904297,-0.04052734,0.9741211,0.2275391,0.03125,-0.4360352
499,0.8125,-0.8125,-1.75,0,-0.03662109,0.9707031,0.2275391,0.03125,-0.4360352
502,0.3125,-1.0625,-1.6875,-0.00390625,-0.04443359,1.009277,0.2275391,0.03125,-0.4360352
504,0.0625,-1.375,-1.8125,-0.02001953,-0.02099609,0.9975586,0.2148438,0.03125,-0.4438477
505,0.1875,-1.25,-1.6875,0,-0.04833984,0.9897461,0.2148438,0.03125,-0.4438477
507,-0.375,-1.0625,-1.25,-0.02001953,-0.04052734,1.009277,0.2148438,0.03125,-0.4438477
508,-0.5625,-0.875,-1.3125,-0.01220703,-0.04443359,0.9741211,0.2148438,0.03857422,-0.4360352
510,-1.0625,-1.25,-1.5625,-0.01611328,-0.04833984,1.009277,0.2148438,0.03857422,-0.4360352
511,-0.6875,-1.6875,-1.25,0,-0.05615234,1.001465,0.2148438,0.03857422,-0.4360352
513,-0.1875,-1.375,-0.9375,0,-0.07568359,1.001465,0.2148438,0.03857422,-0.4360352
514,0.1875,-1.3125,-0.3125,-0.01220703,-0.05615234,1.016602,0.2275391,0.03369141,-0.4335938
516,0.4375,-0.5625,-0.125,-0.01611328,-0.05224609,0.9858398,0.2275391,0.03369141,-0.4335938
517,0.5,-0.0625,-0.3125,-0.02001953,-0.04443359,0.9819336,0.2275391,0.03369141,-0.4335938
519,0.75,0.0625,-0.1875,-0.01220703,-0.06396484,1.024414,0.2099609,0.04345703,-0.4384766
520,1,0.3125,-0.125,0,-0.05224609,0.9858398,0.2099609,0.04345703,-0.4384766
522,1,0.75,0.125,-0.01611328,-0.03662109,1.005371,0.2099609,0.04345703,-0.4384766
523,0.75,0.625,0,-0.00390625,-0.04443359,0.9858398,0.2099609,0.04345703,-0.4384766
525,0.8125,0.875,-0.1875,-0.01611328,-0.04443359,1.001465,0.2099609,0.04345703,-0.4384766
526,0.9375,0.5,-0.5,0.007324219,-0.04052734,0.9936523,0.2099609,0.04345703,-0.4384766
528,1.3125,0.4375,-0.75,-0.01220703,-0.03662109,1.016602,0.2099609,0.04345703,-0.4384766
529,1.75,-0.25,-1.1875,0.003417969,-0.04443359,0.9858398,0.2177734,0.02880859,-0.4487305
531,1.625,-0.75,-1.375,0.003417969,-0.05615234,0.9667969,0.2177734,0.02880859,-0.4487305
532,1.25,-1.125,-1.5625,-0.00390625,-0.04833984,1.009277,0.2177734,0.02880859,-0.4487305
534,1.125,-1.5625,-1.8125,-0.0078125,-0.03662109,0.9819336,0.2226563,0.02587891,-0.4438477
535,1.125,-2.125,-1.9375,-0.01611328,-0.05615234,1.001465,0.2226563,0.02587891,-0.4438477
537,1.3125,-2.1875,-1.8125,-0.00390625,-0.05615234,1.005371,0.2226563,0.02587891,-0.4438477
538,1.1875,-1.875,-1.5,-0.01611328,-0.05224609,1.005371,0.2226563,0.02587891,-0.4438477
540,0.875,-1.5,-1.6875,0,-0.04833984,1.001465,0.2148438,0.02099609,-0.4384766
541,0.625,-1.25,-1.25,-0.0078125,-0.06787109,0.9897461,0.2148438,0.02099609,-0.4384766
543,0.5,-0.8125,-0.9375,-0.01611328,-0.04052734,1.016602,0.2148438,0.02099609,-0.4384766
544,0.75,-0.6875,-0.5625,-0.01611328,-0.06787109,1.012695,0.2226563,0.03613281,-0.4462891
546,0.9375,-0.9375,-0.3125,-0.0078125,-0.04443359,0.9897461,0.2226563,0.03613281,-0.4462891
547,1.1875,-0.875,0.0625,0,-0.05224609,1.005371,0.2226563,0.03613281,-0.4462891
549,1,-0.5625,0.4375,-0.02392578,-0.04833984,1.001465,0.2226563,0.03613281,-0.4462891
550,1,-0.4375,0.5625,-0.01220703,-0.03662109,0.9858398,0.2226563,0.03613281,-0.4462891
552,0.9375,-0.375,0.75,-0.00390625,-0.05615234,0.9819336,0.2226563,0.03613281,-0.4462891
553,1.25,-0.5625,0.875,0,-0.04443359,0.9858398,0.2226563,0.03613281,-0.4462891
555,1.5625,-0.75,0.9375,0.003417969,-0.03662109,0.9897461,0.2226563,0.01855469,-0.4384766
556,1.75,-0.625,0.875,0,-0.05224609,0.9511719,0.2226563,0.01855469,-0.4384766
558,1.375,-0.5,1,-0.01611328,-0.06005859,1.016602,0.2226563,0.01855469,-0.4384766
559,1.1875,-0.4375,1.0625,-0.0078125,-0.04833984,1.005371,0.2202148,0.03369141,-0.4414063
561,1.4375,-0.8125,1,0.01123047,-0.04443359,1.020508,0.2202148,0.03369141,-0.4414063
562,0.8125,-0.875,1.0625,-0.01220703,-0.04833984,0.9741211,0.2202148,0.03369141,-0.4414063
564,0.375,-1.0625,0.8125,0.01123047,-0.04052734,1.009277,0.2202148,0.03369141,-0.4414063
565,0.4375,-1.1875,0.3125,-0.00390625,-0.01708984,1.016602,0.2226563,0.03613281,-0.4438477
567,0.625,-1.4375,-0.0625,-0.01611328,-0.02099609,1.012695,0.2226563,0.03613281,-0.4438477
568,1.375,-1.5625,-0.375,-0.00390625,-0.02490234,0.9936523,0.2226563,0.03613281,-0.4438477
570,1.5,-1.5625,-0.375,-0.01611328,-0.04052734,1.001465,0.2148438,0.03857422,-0.4384766
571,1.125,-1.5625,-0.375,0.003417969,-0.02490234,1.001465,0.2148438,0.03857422,-0.4384766
573,0.6875,-1.3125,-0.5,0,-0.01708984,0.9897461,0.2148438,0.03857422,-0.4384766
574,0.3125,-1.125,-0.5625,-0.01611328,-0.03271484,0.9936523,0.2124023,0.03613281,-0.4384766
576,0.1875,-0.8125,-0.5625,0,-0.03662109,1.005371,0.2124023,0.03613281,-0.4384766
577,0.0625,-0.8125,-0.5,-0.0078125,-0.05224609,1.001465,0.2124023,0.03613281,-0.4384766
579,0.0625,-0.4375,-0.6875,0.003417969,-0.05615234,1.009277,0.2124023,0.03613281,-0.4384766
580,0.5,0,-0.6875,-0.02001953,-0.02880859,1.009277,0.2250977,0.03369141,-0.4384766
582,0.5625,0.125,-0.6875,-0.01220703,-0.03662109,1.005371,0.2250977,0.03369141,-0.4384766
583,0.5,0.3125,-0.4375,-0.01611328,-0.04052734,1.016602,0.2250977,0.03369141,-0.4384766
585,0.125,0.3125,-0.625,0.003417969,-0.03662109,0.9858398,0.2148438,0.03857422,-0.4360352
586,0.125,0.5,-0.5,0,-0.02880859,1.001465,0.2148438,0.03857422,-0.4360352
588,0,0.4375,-0.25,-0.01611328,-0.05224609,1.009277,0.2148438,0.03857422,-0.4360352
589,-0.3125,0.0625,-0.8125,0,-0.05224609,1.001465,0.2148438,0.03857422,-0.4360352
591,-0.25,-0.0625,-0.4375,-0.01220703,-0.04052734,1.001465,0.2148438,0.03857422,-0.4360352
592,-0.5625,-0.4375,-0.5,0.007324219,-0.05224609,0.9858398,0.2148438,0.03857422,-0.4360352
594,-0.5625,-1,-0.5625,0.003417969,-0.02490234,1.001465,0.2148438,0.03857422,-0.4360352
595,-0.75,-0.875,-0.5625,-0.02001953,-0.03271484,1.001465,0.2202148,0.03857422,-0.4462891
597,-0.625,-1.125,-0.1875,-0.01220703,-0.04052734,1.001465,0.2202148,0.03857422,-0.4462891
599,-0.25,-1.0625,-0.0625,0.007324219,-0.02880859,1.016602,0.2202148,0.03857422,-0.4462891
601,-0.3125,-1.125,0.25,-0.01220703,-0.03662109,1.012695,0.2124023,0.0234375,-0.4487305
602,0,-1.125,0.375,-0.01220703,-0.03271484,1.001465,0.2124023,0.0234375,-0.4487305
604,0.5,-1.3125,0.6875,0,-0.04052734,1.012695,0.2124023,0.0234375,-0.4487305
605,0.3125,-1.4375,0.5,0.007324219,-0.03662109,1.036133,0.2124023,0.0234375,-0.4487305
607,0.125,-1.4375,0.5,-0.01611328,-0.04443359,1.005371,0.2099609,0.03125,-0.4462891
608,0.4375,-1,0.375,-0.0078125,-0.03662109,1.005371,0.2099609,0.03125,-0.4462891
610,0.6875,-0.75,0.75,0.003417969,-0.02880859,1.02832,0.2099609,0.03125,-0.4462891
611,0.8125,-0.5,1.125,-0.0078125,-0.04052734,0.9897461,0.2177734,0.03369141,-0.4384766
613,0.375,-0.625,1.125,0.01123047,-0.04443359,1.012695,0.2177734,0.03369141,-0.4384766
614,0.125,-0.75,1.3125,0,-0.04443359,1.005371,0.2177734,0.03369141,-0.4384766
616,0.0625,-0.9375,1.1875,-0.01611328,-0.03271484,1.009277,0.2177734,0.03369141,-0.4384766
617,0,-0.625,1.25,0.003417969,-0.05615234,1.009277,0.2177734,0.03369141,-0.4384766
619,-0.0625,-0.6875,1.375,-0.02392578,-0.06005859,1.012695,0.2177734,0.03369141,-0.4384766
620,0,-0.25,1.5,-0.00390625,-0.04833984,1.001465,0.2177734,0.03369141,-0.4384766
622,0,-0.4375,1.875,-0.01220703,-0.03271484,1.001465,0.2099609,0.02099609,-0.4487305
623,0.125,0,2,0.01123047,-0.04443359,1.001465,0.2099609,0.02099609,-0.4487305
625,0.125,0,1.5,-0.00390625,-0.03662109,0.9936523,0.2099609,0.02099609,-0.4487305
626,0.25,0,1.4375,0.003417969,-0.03662109,0.9897461,0.2124023,0.02099609,-0.4438477
628,0.375,-0.125,0.875,0,-0.04443359,1.005371,0.2124023,0.02099609,-0.4438477
629,0.3125,0.1875,0.6875,0.01123047,-0.03662109,0.9858398,0.2124023,0.02099609,-0.4438477
631,0.3125,0.0625,0.25,-0.00390625,-0.03271484,1.001465,0.2124023,0.02099609,-0.4438477
632,-0.125,0.375,0,-0.0078125,-0.04443359,1.001465,0.2099609,0.04345703,-0.4462891
634,0,0.5,-0.375,-0.02783203,-0.04833984,1.009277,0.2099609,0.04345703,-0.4462891
635,0,0.875,-0.5625,0.01513672,-0.06787109,1.005371,0.2099609,0.04345703,-0.4462891
637,-0.25,1.3125,-0.875,-0.02001953,-0.05224609,0.9819336,0.2075195,0.02880859,-0.4438477
638,-0.3125,1.4375,-0.875,0.007324219,-0.03271484,1.012695,0.2075195,0.02880859,-0.4438477
640,-0.125,1.5,-1.25,0.003417969,-0.05615234,1.012695,0.2075195,0.02880859,-0.4438477
641,-0.125,1.5,-1.4375,0.01123047,-0.03662109,1.001465,0.2177734,0.04101563,-0.4462891
643,-0.0625,1.6875,-1.3125,0.003417969,-0.04833984,0.9936523,0.2177734,0.04101563,-0.4462891
644,-0.25,1.375,-1.1875,-0.00390625,-0.05224609,0.9975586,0.2177734,0.04101563,-0.4462891
646,0,1.5,-1.125,0.003417969,-0.05224609,1.032227,0.2177734,0.04101563,-0.4462891
647,0,1.4375,-0.875,0,-0.02490234,1.001465,0.2226563,0.04345703,-0.4414063
649,-0.1875,1,-1.0625,-0.0078125,-0.05224609,0.9897461,0.2226563,0.04345703,-0.4414063
650,-0.125,0.5625,-0.5625,-0.00390625,-0.04443359,0.9936523,0.2226563,0.04345703,-0.4414063
652,-0.1875,0.5,-0.5,-0.00390625,-0.03662109,1.001465,0.2177734,0.02880859,-0.4287109
653,-0.5,0.6875,-0.3125,-0.0078125,-0.05615234,1.001465,0.2177734,0.02880859,-0.4287109
655,-0.4375,0.3125,0,0.01904297,-0.06005859,0.9819336,0.2177734,0.02880859,-0.4287109
656,-0.5625,0.3125,0.1875,0,-0.06787109,0.9707031,0.2177734,0.02880859,-0.4287109
658,-0.625,0,0.375,-0.00390625,-0.04052734,1.005371,0.2177734,0.02880859,-0.4287109
659,-0.375,0.0625,0.4375,0,-0.02880859,0.9819336,0.2177734,0.02880859,-0.4287109
661,-0.25,-0.0625,0.3125,0.003417969,-0.03662109,0.9819336,0.2177734,0.02880859,-0.4287109
662,0.0625,-0.0625,0.6875,0.01904297,-0.05224609,1.016602,0.2148438,0.03125,-0.4414063
664,0.4375,-0.375,0.3125,-0.02001953,-0.02490234,1.001465,0.2148438,0.03125,-0.4414063
665,0.1875,0,0.125,0,-0.03662109,1.001465,0.2148438,0.03125,-0.4414063
667,0.5,0.375,0,-0.0078125,-0.03271484,0.9780273,0.2202148,0.03125,-0.4462891
668,0.25,0.75,-0.1875,-0.0078125,-0.03662109,1.009277,0.2202148,0.03125,-0.4462891
670,0.375,1.125,0,-0.0078125,-0.02490234,1.005371,0.2202148,0.03125,-0.4462891
671,0,1.375,0.1875,-0.0078125,-0.06396484,0.9936523,0.2202148,0.03125,-0.4462891
673,-0.25,1.3125,-0.125,-0.01611328,-0.04052734,1.009277,0.2124023,0.03125,-0.4438477
674,-0.5625,1.3125,-0.0625,-0.01611328,-0.05224609,1.001465,0.2124023,0.03125,-0.4438477
676,-0.4375,1.125,-0.0625,-0.01611328,-0.04052734,0.9975586,0.2124023,0.03125,-0.4438477
677,-0.25,0.625,-0.3125,-0.01220703,-0.03271484,0.9858398,0.2124023,0.03125,-0.4462891
679,0,0.4375,-0.625,0,-0.02490234,1.001465,0.2124023,0.03125,-0.4462891
680,0.1875,-0.0625,-0.6875,-0.00390625,-0.05224609,1.009277,0.2124023,0.03125,-0.4462891
682,0.4375,0,-0.875,-0.00390625,-0.03662109,0.9936523,0.2124023,0.03125,-0.4462891
683,0.1875,0.3125,-0.5625,-0.02001953,-0.05224609,1.001465,0.2124023,0.03125,-0.4462891
685,-0.1875,0.8125,0,-0.02392578,-0.05615234,1.001465,0.2124023,0.03125,-0.4462891
686,0,0.9375,0,-0.01611328,-0.06005859,0.9897461,0.2124023,0.03125,-0.4462891
688,0.3125,1.1875,0.3125,-0.02001953,-0.03271484,1.009277,0.2226563,0.02880859,-0.4462891
689,0.3125,1.125,0,-0.02001953,-0.03271484,1.005371,0.2226563,0.02880859,-0.4462891
691,0.8125,0.5,-0.1875,0.003417969,-0.03662109,0.9819336,0.2226563,0.02880859,-0.4462891
692,1.0625,0.625,-0.0625,-0.01611328,-0.04052734,1.016602,0.2250977,0.03125,-0.4462891
694,0.875,0.625,-0.3125,0.003417969,-0.02490234,1.009277,0.2250977,0.03125,-0.4462891
696,1.1875,0.6875,-0.375,-0.01611328,-0.02490234,1.016602,0.2250977,0.03125,-0.4462891
698,1.25,0.5,-0.6875,-0.01611328,-0.03271484,1.016602,0.2250977,0.03125,-0.4462891
699,1.3125,0.625,-1,0.003417969,-0.01708984,1.016602,0.2099609,0.03857422,-0.4462891
701,1.4375,0.375,-0.875,-0.0078125,-0.03271484,1.016602,0.2099609,0.03857422,-0.4462891
702,1.6875,0.1875,-0.875,-0.02001953,-0.02880859,0.9780273,0.2099609,0.03857422,-0.4462891
704,1.5625,0.125,-0.75,-0.01611328,-0.05224609,1.009277,0.2099609,0.03857422,-0.4384766
705,1.25,-0.3125,-0.75,-0.01220703,-0.03271484,0.9975586,0.2099609,0.03857422,-0.4384766
707,1.25,-0.3125,-0.375,-0.01611328,-0.03662109,0.9975586,0.2099609,0.03857422,-0.4384766
708,1.25,-0.25,-0.0625,0.003417969,-0.06396484,0.9819336,0.2226563,0.03369141,-0.4438477
710,1.1875,-0.4375,0.0625,-0.0078125,-0.04443359,0.9819336,0.2226563,0.03369141,-0.4438477
711,1.3125,-0.25,0.1875,0.007324219,-0.03271484,0.9936523,0.2226563,0.03369141,-0.4438477
713,1.375,-0.5625,0.5625,-0.01220703,-0.03271484,1.001465,0.2226563,0.03369141,-0.4438477
714,0.9375,-0.75,0.3125,-0.00390625,-0.02099609,1.016602,0.2075195,0.02587891,-0.4384766
716,1.1875,-0.9375,0.375,0.003417969,-0.02880859,1.009277,0.2075195,0.02587891,-0.4384766
717,1.125,-1.25,0.4375,0.003417969,-0.02880859,1.005371,0.2075195,0.02587891,-0.4384766
719,1,-1.375,0.5,0.007324219,-0.05224609,0.9897461,0.2250977,0.03369141,-0.4311523
720,0.9375,-2.125,0.1875,0.01904297,-0.03662109,1.005371,0.2250977,0.03369141,-0.4311523
722,0.6875,-2.75,0.5,0.01904297,-0.04443359,0.9819336,0.2250977,0.03369141,-0.4311523
723,0.3125,-3,0.3125,-0.0078125,-0.05615234,0.9897461,0.2250977,0.03369141,-0.4311523
725,-0.0625,-2.875,0.8125,-0.01611328,-0.05224609,0.9897461,0.2250977,0.03369141,-0.4311523
726,-0.1875,-3.125,0.625,0.003417969,-0.04052734,1.020508,0.2250977,0.03369141,-0.4311523
728,0.5625,-2.4375,0.0625,-0.02392578,-0.01318359,1.005371,0.2250977,0.03369141,-0.4311523
729,0.3125,-1.8125,0.5,-0.01220703,-0.04833984,1.020508,0.2099609,0.0234375,-0.4438477
731,-0.5625,-0.875,1.5,-0.0078125,-0.05615234,1.016602,0.2099609,0.0234375,-0.4438477
732,-0.625,-0.6875,2.4375,0.01904297,-0.05615234,1.009277,0.2099609,0.0234375,-0.4438477
734,-0.25,-0.8125,2.5,-0.02783203,-0.05224609,1.001465,0.2148438,0.02587891,-0.4384766
735,0.4375,-0.6875,2.8125,-0.00390625,-0.02880859,1.020508,0.2148438,0.02587891,-0.4384766
737,0.25,-0.375,2.625,-0.02001953,-0.05224609,1.016602,0.2148438,0.02587891,-0.4384766
738,-0.125,-0.125,2.625,-0.02001953,-0.04833984,0.9897461,0.2148438,0.02587891,-0.4384766
740,-0.1875,-0.1875,2.75,-0.00390625,-0.04052734,1.001465,0.2202148,0.02587891,-0.4438477
741,-0.25,-0.5,2.625,0.01123047,-0.03271484,1.005371,0.2202148,0.02587891,-0.4438477
743,-0.375,-0.8125,2.6875,0,-0.05615234,0.9858398,0.2202148,0.02587891,-0.4438477
744,-0.875,-1.4375,2.5625,0.003417969,-0.03271484,1.001465,0.2202148,0.03857422,-0.4487305
746,-0.9375,-1.625,2.25,-0.0078125,-0.03662109,1.02832,0.2202148,0.03857422,-0.4487305
747,-1.25,-1.4375,1.875,-0.0078125,-0.03271484,0.9975586,0.2202148,0.03857422,-0.4487305
749,-1.0625,-1.75,2.0625,-0.0078125,-0.06787109,0.9897461,0.2202148,0.03857422,-0.4487305
750,-0.75,-1.4375,1.75,-0.0078125,-0.04443359,1.005371,0.2202148,0.03857422,-0.4487305
752,-0.5625,-1.3125,1.4375,-0.00390625,-0.04833984,1.009277,0.2202148,0.03857422,-0.4487305
753,-0.1875,-1.4375,1.0625,0.003417969,-0.04443359,1.005371,0.2202148,0.03857422,-0.4487305
755,0.25,-1.4375,1.0625,0.01123047,-0.05224609,0.9936523,0.2177734,0.03369141,-0.4360352
756,0.375,-1.375,1.125,-0.02001953,-0.04443359,1.001465,0.2177734,0.03369141,-0.4360352
758,0.6875,-1.3125,0.6875,-0.01220703,-0.06005859,0.9780273,0.2177734,0.03369141,-0.4360352
759,0.4375,-1.375,0.5625,0.01123047,-0.04833984,0.9741211,0.2124023,0.02880859,-0.4335938
761,0.375,-1.375,0.125,0,-0.04833984,0.9667969,0.2124023,0.02880859,-0.4335938
762,0.25,-1.3125,-0.0625,-0.01611328,-0.03662109,1.016602,0.2124023,0.02880859,-0.4335938
764,0.6875,-0.9375,-0.125,0.01904297,-0.04833984,1.005371,0.2124023,0.02880859,-0.4335938
765,0.3125,-0.625,0,-0.00390625,-0.03271484,0.9936523,0.2202148,0.03125,-0.4462891
767,0.1875,-0.5625,0,0.01904297,-0.02880859,0.9936523,0.2202148,0.03125,-0.4462891
768,-0.5,-0.3125,-0.25,0,-0.03662109,1.001465,0.2202148,0.03125,-0.4462891
770,-0.375,-0.375,-0.6875,-0.00390625,-0.04052734,1.009277,0.2202148,0.01855469,-0.4462891
771,-0.4375,-0.4375,-0.8125,0.003417969,-0.04052734,1.009277,0.2202148,0.01855469,-0.4462891
773,-0.4375,-0.0625,-0.8125,-0.01220703,-0.03662109,0.9897461,0.2202148,0.01855469,-0.4462891
774,-0.3125,0.1875,-0.875,0,-0.03662109,0.9897461,0.2250977,0.03125,-0.4384766
776,-0.25,0.25,-0.6875,-0.02001953,-0.02880859,1.005371,0.2250977,0.03125,-0.4384766
777,-0.1875,0.375,-0.5625,-0.00390625,-0.05224609,1.009277,0.2250977,0.03125,-0.4384766
779,0,0.5625,-0.1875,-0.01611328,-0.03271484,0.9975586,0.2250977,0.03125,-0.4384766
780,-0.3125,0.5,0,-0.00390625,-0.01708984,1.001465,0.2148438,0.03613281,-0.4414063
782,-0.25,0.375,0.4375,0,-0.03271484,1.001465,0.2148438,0.03613281,-0.4414063
783,-0.375,0.125,0.5625,0,-0.03662109,1.012695,0.2148438,0.03613281,-0.4414063
785,0.0625,0.8125,0.4375,-0.00390625,-0.03662109,0.9897461,0.2099609,0.0234375,-0.4487305
786,0.25,0.8125,0.9375,-0.0078125,-0.03271484,1.001465,0.2099609,0.0234375,-0.4487305
788,0.3125,0.625,1,0.007324219,-0.03662109,0.9975586,0.2099609,0.0234375,-0.4487305
789,0.4375,0.3125,1.1875,-0.02392578,-0.05224609,1.009277,0.2099609,0.0234375,-0.4487305
791,0.25,0.25,1.5,0.01904297,-0.04443359,1.005371,0.2099609,0.0234375,-0.4487305
793,-0.0625,-0.1875,1.75,-0.02392578,-0.04833984,1.024414,0.2099609,0.0234375,-0.4487305
795,-0.1875,-0.3125,1.8125,-0.0078125,-0.06005859,1.005371,0.2099609,0.0234375,-0.4487305
796,-0.1875,-0.8125,1.75,0,-0.03662109,1.001465,0.2124023,0.02880859,-0.4462891
798,-0.1875,-1.0625,1.5625,0.003417969,-0.04052734,0.9936523,0.2124023,0.02880859,-0.4462891
799,0,-1.5625,1.3125,-0.01611328,-0.03271484,1.001465,0.2124023,0.02880859,-0.4462891
801,0,-1.75,1.375,-0.01611328,-0.03662109,1.009277,0.2202148,0.04345703,-0.4384766
802,0,-1.625,1.3125,-0.0078125,-0.04052734,1.020508,0.2202148,0.04345703,-0.4384766
804,-0.375,-1.3125,1.3125,-0.02001953,-0.04052734,1.012695,0.2202148,0.04345703,-0.4384766
805,-0.0625,-1.375,0.9375,0.007324219,-0.04833984,1.005371,0.2202148,0.04345703,-0.4384766
807,0,-1.0625,0.625,-0.01611328,-0.02490234,1.016602,0.2124023,0.03125,-0.4384766
808,0.3125,-0.8125,0.625,0.007324219,-0.03662109,1.005371,0.2124023,0.03125,-0.4384766
810,-0.125,-0.5625,0.4375,0.01123047,-0.04833984,0.9858398,0.2124023,0.03125,-0.4384766
811,-0.125,-0.625,0.5625,0.003417969,-0.05615234,1.005371,0.2148438,0.02880859,-0.4487305
813,-0.5625,-0.75,0.0625,-0.0078125,-0.04833984,0.9780273,0.2148438,0.02880859,-0.4487305
814,-0.5,-0.625,-0.0625,0.01904297,-0.02099609,1.012695,0.2148438,0.02880859,-0.4487305
816,-0.3125,-0.3125,-0.1875,0.003417969,-0.04052734,0.9819336,0.2148438,0.02880859,-0.4487305
817,0,-0.125,-0.4375,0,-0.05224609,1.012695,0.2148438,0.02880859,-0.4487305
819,0.125,0.1875,-0.5625,-0.0078125,-0.05224609,1.009277,0.2148438,0.02880859,-0.4487305
820,0.25,0.375,-0.625,-0.00390625,-0.02880859,0.9897461,0.2148438,0.02880859,-0.4487305
822,0.5625,0.875,-0.4375,-0.0078125,-0.04833984,0.9897461,0.2124023,0.03369141,-0.4438477
823,0.5625,1.1875,-0.6875,-0.01220703,-0.02880859,0.9936523,0.2124023,0.03369141,-0.4438477
825,0.4375,1.3125,-0.5,-0.01220703,-0.01708984,1.001465,0.2124023,0.03369141,-0.4438477
826,0.375,1.25,-0.5,0.01123047,-0.05224609,1.009277,0.2202148,0.03613281,-0.4438477
828,0.25,1.4375,-0.375,0.003417969,-0.03662109,1.016602,0.2202148,0.03613281,-0.4438477
829,0.4375,1.5625,-0.375,-0.0078125,-0.05224609,0.9975586,0.2202148,0.03613281,-0.4438477
831,0.625,0.875,-0.5,0,-0.05224609,0.9741211,0.2202148,0.03613281,-0.4438477
832,0.5,0.9375,-0.375,0,-0.05224609,1.012695,0.2148438,0.03125,-0.4438477
834,0.125,1.3125,-0.1875,0.007324219,-0.04833984,1.001465,0.2148438,0.03125,-0.4438477
835,0,1.4375,0.125,-0.0078125,-0.05224609,1.009277,0.2148438,0.03125,-0.4438477
837,0.375,1.5,0.125,-0.01220703,-0.05224609,0.9897461,0.2226563,0.04101563,-0.4414063
838,0.1875,1.25,0.375,-0.0078125,-0.06005859,1.016602,0.2226563,0.04101563,-0.4414063
840,0.25,1.3125,0.625,0.003417969,-0.06396484,1.005371,0.2226563,0.04101563,-0.4414063
841,0.1875,1.1875,0.3125,0.007324219,-0.04833984,0.9936523,0.2124023,0.03613281,-0.4462891
843,0.1875,1.0625,0.5625,0.01904297,-0.05615234,1.005371,0.2124023,0.03613281,-0.4462891
844,0.5625,1.3125,0.5,-0.01611328,-0.05224609,1.001465,0.2124023,0.03613281,-0.4462891
846,1.125,1.1875,0.1875,-0.00390625,-0.05224609,1.001465,0.2124023,0.03613281,-0.4462891
847,1.1875,0.875,0,0.003417969,-0.04833984,1.012695,0.2202148,0.03369141,-0.4438477
849,1.625,0.875,0,-0.00390625,-0.03662109,1.001465,0.2202148,0.03369141,-0.4438477
850,1.25,0.8125,-0.25,0.003417969,-0.06787109,1.012695,0.2202148,0.03369141,-0.4438477
852,1,0.875,-0.125,-0.01611328,-0.04443359,1.005371,0.2226563,0.0234375,-0.4414063
853,0.875,1.375,0,-0.02001953,-0.06005859,0.9936523,0.2226563,0.0234375,-0.4414063
855,1.125,1.4375,0.0625,-0.02001953,-0.02490234,0.9936523,0.2226563,0.0234375,-0.4414063
856,0.5625,1.375,-0.6875,-0.01220703,-0.03662109,1.001465,0.2226563,0.0234375,-0.4414063
858,0.8125,0.875,-0.75,-0.01220703,-0.05224609,1.001465,0.2226563,0.0234375,-0.4414063
859,0.9375,1.0625,-0.9375,-0.01611328,-0.02099609,1.012695,0.2226563,0.0234375,-0.4414063
861,1.0625,1.0625,-1,-0.0078125,-0.03662109,0.9936523,0.2226563,0.0234375,-0.4414063
862,1.1875,0.625,-0.8125,-0.00390625,-0.04833984,1.005371,0.2177734,0.03613281,-0.4438477
864,0.625,-0.0625,-0.4375,0.01513672,-0.05224609,0.9975586,0.2177734,0.03613281,-0.4438477
865,0.1875,-0.4375,-0.6875,0.003417969,-0.04833984,0.9936523,0.2177734,0.03613281,-0.4438477
867,0.3125,-0.625,-0.1875,-0.01220703,-0.05224609,1.009277,0.2124023,0.03369141,-0.4414063
868,0.125,-0.6875,-0.25,-0.01611328,-0.05224609,1.016602,0.2124023,0.03369141,-0.4414063
870,0,-0.375,0,-0.00390625,-0.04443359,0.9858398,0.2124023,0.03369141,-0.4414063
871,-0.25,-0.4375,0.25,-0.00390625,-0.04443359,1.016602,0.2124023,0.03369141,-0.4414063
873,-0.125,-0.25,0.6875,0.003417969,-0.05224609,0.9936523,0.2226563,0.03125,-0.4414063
874,0,0,0.75,0,-0.04833984,0.9897461,0.2226563,0.03125,-0.4414063
876,0.0625,0.0625,1.3125,-0.02001953,-0.03662109,1.001465,0.2226563,0.03125,-0.4414063
877,0.25,0.125,1.125,0.003417969,-0.02490234,1.001465,0.2275391,0.03125,-0.4414063
879,0.0625,0,1.5,-0.00390625,-0.04443359,1.001465,0.2275391,0.03125,-0.4414063
880,0.125,0.0625,1.6875,-0.01220703,-0.02490234,1.001465,0.2275391,0.03125,-0.4414063
882,0.125,0.375,1.625,-0.02001953,-0.03662109,1.005371,0.2275391,0.03125,-0.4414063
883,0,0.5,1.25,0.003417969,-0.04052734,1.009277,0.2275391,0.03125,-0.4414063
885,0.3125,0.4375,1.3125,-0.00390625,-0.04833984,1.020508,0.2275391,0.03125,-0.4414063
886,0.4375,1.125,0.9375,-0.0078125,-0.02880859,1.001465,0.2275391,0.03125,-0.4414063
888,0.6875,1.625,0.5625,-0.0078125,-0.03662109,1.009277,0.2148438,0.02880859,-0.4384766
891,0.6875,2.0625,0.25,0,-0.04052734,0.9975586,0.2148438,0.02880859,-0.4384766
893,0.3125,2.375,-0.25,-0.02392578,-0.04443359,0.9897461,0.2148438,0.02880859,-0.4384766
894,0.4375,2.6875,-0.5,-0.01220703,-0.03662109,0.9975586,0.2124023,0.0234375,-0.4414063
896,0.375,2.6875,-0.75,0,-0.04443359,1.009277,0.2124023,0.0234375,-0.4414063
897,0.25,2.25,-1.0625,-0.00390625,-0.04443359,0.9780273,0.2124023,0.0234375,-0.4414063
899,0.3125,2.0625,-1.375,-0.01220703,-0.03271484,1.001465,0.2124023,0.0234375,-0.4414063
900,0.0625,1.625,-1.75,-0.01220703,-0.05224609,0.9897461,0.2075195,0.02587891,-0.4384766
902,0,1.8125,-2.5,0.007324219,-0.02880859,1.005371,0.2075195,0.02587891,-0.4384766
903,-0.125,1.75,-2.75,0.003417969,-0.07177734,0.9667969,0.2075195,0.02587891,-0.4384766
905,0.375,1.0625,-2.6875,-0.01611328,-0.04052734,0.9936523,0.2226563,0.03125,-0.4384766
906,0.5625,0,-2.5625,-0.02001953,-0.04443359,1.005371,0.2226563,0.03125,-0.4384766
908,0.6875,-0.1875,-2.125,-0.01611328,-0.05224609,0.9936523,0.2226563,0.03125,-0.4384766
909,0.4375,-0.75,-2.3125,0.007324219,-0.04443359,1.001465,0.2148438,0.03125,-0.4438477
911,0.125,-1,-2.0625,0,-0.04833984,1.001465,0.2148438,0.03125,-0.4438477
912,0.4375,-0.9375,-1.9375,-0.0078125,-0.07177734,0.9897461,0.2148438,0.03125,-0.4438477
914,0.625,-0.8125,-1.5625,0.007324219,-0.05615234,1.016602,0.2148438,0.03125,-0.4438477
915,0.4375,-0.5,-1.1875,-0.01611328,-0.04443359,1.016602,0.2124023,0.02880859,-0.4287109
917,0.625,-0.25,-0.8125,-0.02001953,-0.04443359,1.005371,0.2124023,0.02880859,-0.4287109
918,0.625,-0.125,-0.4375,-0.00390625,-0.05224609,0.9936523,0.2124023,0.02880859,-0.4287109
920,1.0625,0.0625,-0.1875,-0.01220703,-0.03662109,1.020508,0.2202148,0.02587891,-0.4414063
921,1.25,0.0625,0,-0.0078125,-0.05615234,1.005371,0.2202148,0.02587891,-0.4414063
923,0.875,0.1875,-0.0625,-0.00390625,-0.03662109,1.001465,0.2202148,0.02587891,-0.4414063
924,0.5,0.375,0,-0.01611328,-0.02099609,1.001465,0.2202148,0.02587891,-0.4414063
926,0.1875,0.1875,-0.125,-0.01220703,-0.05224609,1.009277,0.2202148,0.02587891,-0.4414063
927,0.4375,0.125,0,0.01123047,-0.04052734,0.9858398,0.2202148,0.02587891,-0.4414063
929,0.3125,0.1875,-0.25,-0.01611328,-0.03662109,1.005371,0.2202148,0.02587891,-0.4414063
930,0.1875,0.0625,-0.1875,-0.01611328,-0.04443359,1.020508,0.2202148,0.03857422,-0.4462891
932,0.1875,0.6875,-0.5,-0.03173828,-0.03662109,0.9858398,0.2202148,0.03857422,-0.4462891
933,0.375,1.0625,-0.75,-0.01611328,-0.01708984,1.016602,0.2202148,0.03857422,-0.4462891
935,0.0625,1.1875,-0.75,-0.03173828,-0.02880859,1.012695,0.2177734,0.02099609,-0.4414063
936,0.25,1.25,-0.75,-0.02783203,-0.05224609,1.009277,0.2177734,0.02099609,-0.4414063
938,0.3125,1.5625,-0.75,-0.0078125,-0.05224609,1.001465,0.2177734,0.02099609,-0.4414063
939,0,2,-1.0625,-0.01611328,-0.04443359,1.001465,0.2177734,0.02099609,-0.4414063
941,-0.0625,1.875,-0.8125,-0.01611328,-0.03271484,1.001465,0.2177734,0.03125,-0.4438477
942,-0.4375,1.75,-0.5625,-0.01220703,-0.03271484,0.9858398,0.2177734,0.03125,-0.4438477
944,-0.625,1.375,-0.375,-0.01611328,-0.04833984,1.012695,0.2177734,0.03125,-0.4438477
945,-0.8125,0.625,-0.375,0,-0.01708984,1.001465,0.2275391,0.03857422,-0.4360352
947,-0.5,-0.1875,-0.875,-0.0078125,-0.04052734,1.001465,0.2275391,0.03857422,-0.4360352
948,-0.375,-1.0625,-0.75,0.007324219,-0.04443359,1.005371,0.2275391,0.03857422,-0.4360352
950,-0.0625,-1.375,-0.6875,0.003417969,-0.03271484,0.9858398,0.2148438,0.02099609,-0.4384766
951,-0.625,-1.75,-0.75,-0.01220703,-0.03271484,0.9858398,0.2148438,0.02099609,-0.4384766
953,-0.75,-1.5,-0.6875,0.003417969,-0.04833984,1.016602,0.2148438,0.02099609,-0.4384766
954,-0.875,-1.3125,-0.375,-0.00390625,-0.02490234,1.009277,0.2148438,0.02099609,-0.4384766
956,-0.875,-1.125,-0.375,0.003417969,-0.02880859,0.9707031,0.2148438,0.02880859,-0.4311523
957,-1,-1.4375,-0.4375,-0.01611328,-0.03662109,0.9897461,0.2148438,0.02880859,-0.4311523
959,-0.5625,-1.5625,-0.5625,0.007324219,-0.01708984,1.016602,0.2148438,0.02880859,-0.4311523
960,-0.5625,-1.5,-0.5625,0,-0.02880859,1.040039,0.2177734,0.02587891,-0.4462891
962,-0.375,-1.5,-0.5625,-0.0078125,-0.02099609,1.012695,0.2177734,0.02587891,-0.4462891
963,-0.5,-1.1875,-0.75,0,-0.04443359,1.016602,0.2177734,0.02587891,-0.4462891
965,-0.75,-1.5,-0.8125,-0.01220703,-0.04443359,1.001465,0.2177734,0.02587891,-0.4462891
966,-0.8125,-1.3125,-0.5,-0.0078125,-0.01708984,0.9628906,0.2148438,0.02099609,-0.4414063
968,-0.8125,-1.25,-0.625,-0.01611328,-0.02880859,0.9780273,0.2148438,0.02099609,-0.4414063
969,-0.6875,-1.3125,-0.375,-0.01611328,-0.03271484,1.012695,0.2148438,0.02099609,-0.4414063
971,-0.375,-1,-0.5,-0.01220703,-0.03271484,1.001465,0.2177734,0.02099609,-0.4462891
972,-0.125,-0.875,-0.5,-0.00390625,-0.04052734,1.009277,0.2177734,0.02099609,-0.4462891
974,-0.25,-0.6875,0,0.003417969,-0.05224609,1.001465,0.2177734,0.02099609,-0.4462891
975,-0.25,-0.5625,0,-0.01220703,-0.04052734,0.9975586,0.2124023,0.03857422,-0.4335938
977,-0.375,-0.875,-0.125,-0.00390625,-0.04443359,1.001465,0.2124023,0.03857422,-0.4335938
978,-0.25,-1,-0.3125,-0.00390625,-0.03662109,0.9936523,0.2124023,0.03857422,-0.4335938
980,-0.125,-0.75,-0.3125,-0.0078125,-0.03662109,0.9936523,0.2124023,0.03857422,-0.4335938
981,-0.5625,-0.625,0,-0.02001953,-0.01708984,1.012695,0.2275391,0.03125,-0.4384766
983,-0.4375,-0.625,0,-0.00390625,-0.06005859,0.9936523,0.2275391,0.03125,-0.4384766
984,-0.125,-0.1875,0.0625,-0.0078125,-0.04443359,1.005371,0.2275391,0.03125,-0.4384766
986,-0.6875,-0.375,0.0625,-0.00390625,-0.04052734,1.005371,0.2226563,0.03369141,-0.4414063
988,-0.5,-0.25,0.1875,0.003417969,-0.05224609,0.9819336,0.2226563,0.03369141,-0.4414063
990,-0.625,0,0.5,-0.0078125,-0.03271484,1.032227,0.2226563,0.03369141,-0.4414063
991,-0.8125,-0.0625,0.5625,-0.00390625,-0.05615234,0.9858398,0.2226563,0.03369141,-0.4414063
993,-0.75,-0.0625,0.5,-0.00390625,-0.04443359,1.001465,0.2226563,0.03369141,-0.4414063
994,-0.4375,-0.125,0.3125,0,-0.03271484,1.012695,0.2226563,0.03369141,-0.4414063
996,-0.5,-0.0625,0.0625,-0.0078125,-0.04443359,1.009277,0.2226563,0.03369141,-0.4414063
997,-0.625,0,0,0.003417969,-0.02490234,0.9741211,0.2099609,0.03125,-0.4438477
999,-0.8125,-0.25,0,0.003417969,-0.02880859,0.9780273,0.2099609,0.03125,-0.4438477
1000,-0.875,-0.5,0.125,-0.01611328,-0.05224609,1.005371,0.2099609,0.03125,-0.4438477
1002,-0.75,-0.9375,0.1875,0,-0.05615234,1.005371,0.2099609,0.02880859,-0.4414063
1003,-0.25,-1,-0.25,0.003417969,-0.04052734,0.9897461,0.2099609,0.02880859,-0.4414063
1005,0.0625,-1,-0.5625,-0.0078125,-0.03662109,1.012695,0.2099609,0.02880859,-0.4414063
1006,0.3125,-0.3125,-0.8125,-0.01220703,-0.03662109,1.024414,0.2099609,0.02880859,-0.4414063
1008,0.375,0.25,-1,-0.01611328,-0.02490234,1.024414,0.2148438,0.02587891,-0.4438477
1009,0.4375,0.6875,-0.75,-0.0078125,-0.05615234,1.024414,0.2148438,0.02587891,-0.4438477
1011,0.5,1.3125,-0.25,-0.01611328,-0.04052734,0.9936523,0.2148438,0.02587891,-0.4438477
1012,0.6875,2,-0.6875,-0.01220703,-0.04052734,1.001465,0.2148438,0.01855469,-0.4438477
1014,0.875,2.4375,-0.6875,-0.0078125,-0.02490234,1.005371,0.2148438,0.01855469,-0.4438477
1015,0.6875,2.375,-0.9375,-0.01220703,-0.05224609,1.016602,0.2148438,0.01855469,-0.4438477
1017,1.4375,3.125,-0.75,-0.00390625,-0.04443359,1.001465,0.2124023,0.03125,-0.4414063
1018,1,3.6875,-0.9375,-0.02392578,-0.04052734,1.001465,0.2124023,0.03125,-0.4414063
1020,1.0625,4.1875,-0.625,0.003417969,-0.05224609,1.001465,0.2124023,0.03125,-0.4414063
1021,0.75,4.5,-0.75,-0.02392578,-0.03662109,1.009277,0.2124023,0.03125,-0.4414063
1023,0.625,4.4375,-0.9375,-0.02783203,-0.06005859,1.016602,0.2124023,0.02099609,-0.4414063
1024,1.125,4.5,-1.0625,0.003417969,-0.06005859,1.001465,0.2124023,0.02099609,-0.4414063
1026,1.4375,4.375,-1.375,0.01123047,-0.04052734,1.016602,0.2124023,0.02099609,-0.4414063
1027,1.625,4,-1.625,0.007324219,-0.04052734,1.001465,0.2124023,0.03613281,-0.4384766
1029,1.8125,3.875,-1.75,-0.01611328,-0.04833984,1.005371,0.2124023,0.03613281,-0.4384766
1030,1.6875,3.5625,-1.5625,0.003417969,-0.03662109,0.9858398,0.2124023,0.03613281,-0.4384766
1032,1.1875,3.125,-1.5,-0.00390625,-0.03662109,1.005371,0.2124023,0.03613281,-0.4384766
1033,1.0625,2.625,-1.375,-0.0078125,-0.03271484,0.9741211,0.2226563,0.02587891,-0.4335938
1035,0.875,2.25,-1.125,0,-0.03662109,1.016602,0.2226563,0.02587891,-0.4335938
1036,1,1.8125,-1.0625,0,-0.04052734,0.9936523,0.2226563,0.02587891,-0.4335938
1038,1,1.375,-1.125,0.003417969,-0.05224609,0.9897461,0.2202148,0.03125,-0.4487305
1039,1.1875,1.0625,-0.9375,0,-0.05224609,0.9819336,0.2202148,0.03125,-0.4487305
1041,1.125,0.8125,-0.4375,-0.01220703,-0.06005859,0.9858398,0.2202148,0.03125,-0.4487305
1042,1.6875,0.5625,-0.1875,-0.02392578,-0.04833984,0.9897461,0.2202148,0.02099609,-0.4360352
1044,1.875,0.875,0,-0.02001953,-0.03271484,0.9936523,0.2202148,0.02099609,-0.4360352
1045,1.8125,1.1875,0.375,-0.00390625,-0.02880859,1.020508,0.2202148,0.02099609,-0.4360352
1047,2.0625,1.3125,0.75,-0.02001953,-0.05224609,1.009277,0.2202148,0.02099609,-0.4360352
1048,2.1875,0.9375,1,-0.00390625,-0.03662109,1.016602,0.2226563,0.0234375,-0.4384766
1050,1.9375,0.875,1.125,-0.01220703,-0.05615234,0.9975586,0.2226563,0.0234375,-0.4384766
1051,2.375,0.5,1.1875,-0.00390625,-0.03662109,0.9858398,0.2226563,0.0234375,-0.4384766
1053,2.4375,0.4375,0.9375,-0.00390625,-0.05224609,0.9707031,0.2202148,0.03857422,-0.4462891
1054,2.25,0,0.8125,-0.01611328,-0.02490234,0.9780273,0.2202148,0.03857422,-0.4462891
1056,1.75,-0.4375,0.8125,0.003417969,-0.03662109,1.009277,0.2202148,0.03857422,-0.4462891
1057,1.375,-0.875,1.0625,-0.01611328,-0.02490234,0.9975586,0.2202148,0.03857422,-0.4462891
1059,1.375,-1,0.6875,-0.0078125,-0.04833984,1.009277,0.2202148,0.03857422,-0.4462891
1060,1.5,-1.1875,0.75,-0.01611328,-0.04443359,0.9819336,0.2202148,0.03857422,-0.4462891
1062,1.6875,-1.0625,0.8125,-0.00390625,-0.05224609,0.9780273,0.2202148,0.03857422,-0.4462891
1063,1.75,-1.625,0.625,0.007324219,-0.05615234,1.001465,0.2177734,0.03125,-0.4438477
1065,2.0625,-1.8125,0.6875,-0.0078125,-0.02490234,1.009277,0.2177734,0.03125,-0.4438477
1066,1.9375,-2.375,0.4375,0.01123047,-0.04833984,1.001465,0.2177734,0.03125,-0.4438477
1068,2.125,-2.9375,0.3125,0,-0.03271484,0.9707031,0.2226563,0.0234375,-0.4487305
1069,2.3125,-3.375,0.0625,-0.0078125,-0.04443359,0.9667969,0.2226563,0.0234375,-0.4487305
1071,2.0625,-3.4375,0.4375,-0.01220703,-0.05224609,1.001465,0.2226563,0.0234375,-0.4487305
1072,1.375,-3.625,0.5625,-0.0078125,-0.05224609,0.9858398,0.2226563,0.0234375,-0.4487305
1074,0.8125,-3.375,0.5625,-0.00390625,-0.04052734,1.012695,0.2177734,0.02099609,-0.4438477
1075,0.3125,-2.75,0.625,-0.01220703,-0.04443359,0.9936523,0.2177734,0.02099609,-0.4438477
1077,0.1875,-1.875,0.75,0.003417969,-0.05224609,1.016602,0.2177734,0.02099609,-0.4438477
1078,-0.25,-1.5625,0.625,-0.0078125,-0.03662109,1.020508,0.2226563,0.0234375,-0.4384766
1080,-0.5,-1.1875,0.875,-0.01220703,-0.03271484,0.9936523,0.2226563,0.0234375,-0.4384766
1081,-0.4375,-0.9375,1,0,-0.05224609,1.02832,0.2226563,0.0234375,-0.4384766
1083,-0.0625,-1.1875,1.1875,-0.02392578,-0.03271484,1.016602,0.2124023,0.02587891,-0.4414063
1085,0.125,-1.5,1,-0.01611328,-0.01708984,1.005371,0.2124023,0.02587891,-0.4414063
1087,0.5625,-1.875,0.625,0.003417969,-0.02099609,1.020508,0.2124023,0.02587891,-0.4414063
1088,1.0625,-2.0625,0.4375,0,-0.009277344,1.005371,0.2124023,0.02587891,-0.4414063
1090,1,-2.125,0.375,-0.02001953,-0.02099609,1.020508,0.2124023,0.0234375,-0.4462891
1091,1.3125,-1.9375,0.4375,-0.01611328,-0.03662109,1.020508,0.2124023,0.0234375,-0.4462891
1093,1.625,-1.75,0.375,-0.00390625,-0.02099609,1.032227,0.2124023,0.0234375,-0.4462891
1094,1.625,-1.5,0.5,-0.01220703,-0.01318359,1.009277,0.2202148,0.03125,-0.4360352
1096,2.1875,-1.3125,0.75,-0.02783203,-0.01318359,1.02832,0.2202148,0.03125,-0.4360352
1097,2,-0.6875,0.8125,-0.02001953,-0.02880859,1.020508,0.2202148,0.03125,-0.4360352
1099,2.3125,-0.5,1.125,-0.01220703,-0.03662109,1.020508,0.2202148,0.03125,-0.4360352
1100,2.125,-0.4375,1.0625,-0.02783203,-0.01708984,0.9897461,0.2202148,0.03125,-0.4360352
1102,2.5,-1,1.3125,-0.03173828,-0.04443359,1.009277,0.2202148,0.03125,-0.4360352
1103,2.6875,-1.0625,1.25,-0.01611328,-0.03271484,1.012695,0.2202148,0.03125,-0.4360352
1105,2.8125,-1.8125,1.5,0.003417969,-0.04052734,1.016602,0.2226563,0.02587891,-0.4438477
1106,2.75,-2.625,1.1875,0.003417969,-0.02490234,0.9858398,0.2226563,0.02587891,-0.4438477
1108,2.9375,-3.5625,0.6875,0.003417969,-0.02880859,0.9936523,0.2226563,0.02587891,-0.4438477
1109,2.875,-4.4375,0.5,0.01904297,-0.02490234,0.9819336,0.2202148,0.03369141,-0.4414063
1111,3.125,-4.875,0.5625,0.01904297,-0.04052734,1.001465,0.2202148,0.03369141,-0.4414063
1112,2.6875,-5.5,0.6875,0,-0.02880859,0.9819336,0.2202148,0.03369141,-0.4414063
1114,2.375,-5.125,0.75,0.003417969,-0.04052734,1.016602,0.2202148,0.03369141,-0.4414063
1115,2.0625,-5,0.875,0.003417969,-0.05224609,1.005371,0.2250977,0.03125,-0.4462891
1117,2.5,-4.375,0.9375,-0.01220703,-0.03271484,1.024414,0.2250977,0.03125,-0.4462891
1118,2.0625,-3.875,1.4375,0.01513672,-0.04052734,1.001465,0.2250977,0.03125,-0.4462891
1120,1.375,-3.5625,1.5,0.003417969,-0.03662109,1.005371,0.2148438,0.03857422,-0.4360352
1121,1,-3.0625,1.4375,0.02294922,-0.05224609,1.001465,0.2148438,0.03857422,-0.4360352
1123,1.25,-2.75,1.3125,-0.01611328,-0.04443359,1.001465,0.2148438,0.03857422,-0.4360352
1124,0.9375,-2.0625,1.75,0.01904297,-0.05224609,1.001465,0.2148438,0.03857422,-0.4360352
1126,0.4375,-2.0625,1.8125,0.003417969,-0.05615234,1.016602,0.2148438,0.03857422,-0.4360352
1127,0.875,-1.8125,1.875,0.007324219,-0.02880859,1.001465,0.2148438,0.03857422,-0.4360352
1129,1.25,-1.9375,1.5,0.01904297,-0.02880859,0.9858398,0.2148438,0.03857422,-0.4360352
1130,1.3125,-1.6875,1.125,0,-0.03662109,1.012695,0.2202148,0.0234375,-0.4414063
1132,1.6875,-0.6875,0.625,-0.0078125,-0.04052734,1.024414,0.2202148,0.0234375,-0.4414063
1133,1.75,0.0625,0.8125,0.01123047,-0.03662109,1.012695,0.2202148,0.0234375,-0.4414063
1135,1.5625,1.0625,0.5625,-0.0078125,-0.02490234,0.9936523,0.2148438,0.03369141,-0.4438477
1136,1.3125,1.875,0.4375,-0.01611328,-0.03662109,1.016602,0.2148438,0.03369141,-0.4438477
1138,1.25,2.4375,0.375,-0.00390625,-0.02880859,1.005371,0.2148438,0.03369141,-0.4438477
1139,1.625,2.5,0.0625,0,-0.03271484,1.009277,0.2148438,0.03369141,-0.4438477
1141,1.8125,2.8125,0.125,0.01904297,-0.02099609,1.012695,0.2148438,0.01855469,-0.4335938
1142,2.125,2.25,0.1875,0.003417969,-0.02880859,1.016602,0.2148438,0.01855469,-0.4335938
1144,2.25,1.6875,-0.0625,0.01513672,-0.03271484,1.001465,0.2148438,0.01855469,-0.4335938
1145,2.1875,0.8125,0,0.03515625,-0.04052734,1.001465,0.2124023,0.03125,-0.4438477
1147,1.875,0.3125,0.4375,-0.00390625,-0.04443359,0.9897461,0.2124023,0.03125,-0.4438477
1148,1.6875,0,0.0625,0,-0.01708984,1.001465,0.2124023,0.03125,-0.4438477
1150,1.75,-0.4375,0,-0.01611328,-0.01708984,0.9741211,0.2226563,0.0234375,-0.4384766
1151,2,-0.9375,-0.25,0.007324219,-0.03271484,1.005371,0.2226563,0.0234375,-0.4384766
1153,2.1875,-1.25,-0.4375,0,-0.01708984,1.005371,0.2226563,0.0234375,-0.4384766
1154,2.125,-0.9375,-0.8125,0,-0.009277344,1.001465,0.2226563,0.0234375,-0.4384766
1156,1.5625,-0.25,-0.5625,-0.0078125,-0.03271484,1.009277,0.2275391,0.02099609,-0.4360352
1157,0.875,0,-0.5,-0.01220703,-0.03662109,1.009277,0.2275391,0.02099609,-0.4360352
1159,0.6875,0.125,-0.375,-0.0078125,-0.05224609,1.001465,0.2275391,0.02099609,-0.4360352
1160,1.125,0.25,-0.125,0,-0.02880859,0.9936523,0.2075195,0.02099609,-0.4335938
1162,1.625,0.125,0,0.01123047,-0.03662109,1.009277,0.2075195,0.02099609,-0.4335938
1163,2.25,-0.375,-0.1875,0.003417969,-0.009277344,0.9936523,0.2075195,0.02099609,-0.4335938
1165,2.375,-0.4375,-0.375,-0.0078125,-0.01708984,1.005371,0.2075195,0.02099609,-0.4335938
1166,2.5,-0.75,0,0.01123047,-0.03662109,1.009277,0.2075195,0.02099609,-0.4335938
1168,2.6875,-0.5,0.125,0,-0.01708984,1.009277,0.2075195,0.02099609,-0.4335938
1169,2.5,-0.5625,-0.125,-0.01611328,-0.02880859,0.9897461,0.2075195,0.02099609,-0.4335938
1171,2.5,0,-0.0625,-0.01220703,-0.05224609,0.9936523,0.2202148,0.02099609,-0.4414063
1172,1.875,0.125,0.375,-0.02392578,-0.03271484,1.001465,0.2202148,0.02099609,-0.4414063
1174,1.375,0.125,0.8125,0.003417969,-0.04052734,0.9858398,0.2202148,0.02099609,-0.4414063
1175,0.625,0.1875,1.625,0.003417969,-0.02490234,1.001465,0.2177734,0.02099609,-0.4438477
1177,0.8125,0.5,1.6875,0.003417969,-0.03662109,1.016602,0.2177734,0.02099609,-0.4438477
1178,1.5625,0.4375,1.375,0.003417969,-0.02490234,0.9897461,0.2177734,0.02099609,-0.4438477
1180,2.125,0.5625,1.5,0,-0.02490234,0.9897461,0.2177734,0.02099609,-0.4438477
1182,2.4375,0.5,2.1875,-0.03955078,-0.02880859,0.9858398,0.2075195,0.02880859,-0.4384766
1184,1.6875,0.5,2.375,0.007324219,-0.02880859,1.001465,0.2075195,0.02880859,-0.4384766
1185,1.5625,0.625,2.3125,-0.01220703,-0.01708984,0.9936523,0.2075195,0.02880859,-0.4384766
1187,1.375,0.8125,2.1875,-0.0078125,-0.03662109,1.005371,0.2075195,0.0234375,-0.4384766
1188,1.1875,1.0625,1.625,-0.01220703,-0.02880859,1.001465,0.2075195,0.0234375,-0.4384766
1190,0.9375,1.5,1.375,0,-0.02490234,1.020508,0.2075195,0.0234375,-0.4384766
1191,0.75,2.0625,1.5,-0.0078125,-0.01318359,1.016602,0.2075195,0.0234375,-0.4384766
1193,0.6875,2.625,1.8125,-0.01220703,-0.005371094,1.005371,0.2075195,0.0234375,-0.4384766
1194,0.6875,3.0625,1.6875,-0.01611328,-0.01318359,0.9936523,0.2075195,0.0234375,-0.4384766
1196,0.3125,3.1875,1.9375,0.01513672,-0.02880859,1.016602,0.2075195,0.0234375,-0.4384766
1197,0,3.3125,1.9375,0.01904297,-0.02490234,1.001465,0.2177734,0.02099609,-0.4384766
1199,-0.6875,3.4375,1.9375,-0.01220703,-0.04443359,1.02832,0.2177734,0.02099609,-0.4384766
1200,-0.6875,3,2.4375,-0.01611328,-0.04833984,0.9858398,0.2177734,0.02099609,-0.4384766
1202,-1.25,2.4375,2.6875,-0.00390625,-0.05615234,0.9819336,0.2148438,0.02587891,-0.4414063
1203,-1.4375,0.625,3.0625,-0.03564453,-0.03662109,1.005371,0.2148438,0.02587891,-0.4414063
1205,-1.1875,0.625,2.625,0.03515625,-0.04052734,1.001465,0.2148438,0.02587891,-0.4414063
1206,-1.0625,-1,3.0625,-0.00390625,-0.05224609,0.9741211,0.2148438,0.02587891,-0.4414063
1208,0.8125,-6.625,5.9375,-0.05566406,-0.09521484,0.8623047,0.2226563,0.02880859,-0.4438477
1209,5.5,-9.125,7.125,0.1098633,0.009765625,1.101563,0.2226563,0.02880859,-0.4438477
1211,4.6875,-7.375,2.9375,0.02294922,-0.01708984,1.020508,0.2226563,0.02880859,-0.4438477
1212,3.1875,-6.4375,3.375,-0.02392578,-0.06005859,1.009277,0.2124023,0.0234375,-0.4414063
1214,2.875,-5.3125,3.1875,0.003417969,0.01757813,0.9936523,0.2124023,0.0234375,-0.4414063
1215,3.875,-3.8125,2.25,0.003417969,0.01757813,1.016602,0.2124023,0.0234375,-0.4414063
1217,4.8125,-2.6875,1.4375,0.003417969,-0.01708984,1.024414,0.2075195,0.01855469,-0.4360352
1218,6.5,-0.625,0.875,-0.06347656,-0.06005859,0.9858398,0.2075195,0.01855469,-0.4360352
1220,6.4375,0.5,1.5625,-0.01220703,-0.07568359,1.009277,0.2075195,0.01855469,-0.4360352
1221,7,1.5,1.9375,0.01123047,-0.05224609,0.9667969,0.2075195,0.01855469,-0.4360352
1223,6.3125,0.6875,2.5625,0.01123047,-0.05224609,0.9589844,0.2050781,0.0234375,-0.4384766
1224,5.5625,-1.3125,2.5625,0.01513672,-0.02880859,0.9589844,0.2050781,0.0234375,-0.4384766
1226,5.5,-3.1875,2.1875,0.01513672,-0.005371094,0.9897461,0.2050781,0.0234375,-0.4384766
1227,6,-4.1875,1.25,0.01513672,0.009765625,0.9897461,0.2099609,0.01855469,-0.4438477
1229,7,-4.625,0.5625,0.01904297,-0.005371094,0.9897461,0.2099609,0.01855469,-0.4438477
1230,7.875,-4.9375,0.3125,-0.0078125,-0.009277344,1.032227,0.2099609,0.01855469,-0.4438477
1232,7.875,-4.125,0.125,0,-0.02099609,1.001465,0.2099609,0.01855469,-0.4438477
1233,7.6875,-3,0,-0.02001953,-0.01708984,1.02832,0.2099609,0.01855469,-0.4438477
1235,7.9375,-0.0625,1.0625,-0.02783203,-0.03662109,1.055176,0.2099609,0.01855469,-0.4438477
1236,7.3125,4.1875,2.5625,-0.01220703,-0.03662109,1.070801,0.2099609,0.01855469,-0.4438477
1238,4.8125,7.625,5.375,-0.02392578,-0.05224609,1.016602,0.2177734,0.02099609,-0.4384766
1239,6.5625,6.625,6.875,-0.03173828,-0.02490234,1.005371,0.2177734,0.02099609,-0.4384766
1241,7.6875,7.0625,6.4375,0,-0.04052734,1.020508,0.2177734,0.02099609,-0.4384766
1242,7.625,6.875,5.875,0.01123047,-0.06787109,0.9819336,0.2148438,0.008789063,-0.4438477
1244,7.4375,6.3125,6.5,-0.01220703,-0.06396484,0.9741211,0.2148438,0.008789063,-0.4438477
1245,7.875,6.8125,7.8125,-0.01611328,-0.06787109,1.012695,0.2148438,0.008789063,-0.4438477
1247,8,8.3125,10.25,-0.01220703,-0.06787109,1.036133,0.2148438,0.008789063,-0.4438477
1248,8.5,9.4375,12.1875,-0.02001953,-0.08349609,1.012695,0.2250977,0.008789063,-0.4414063
1250,9.0625,9.875,13.125,-0.01611328,-0.06396484,0.9741211,0.2250977,0.008789063,-0.4414063
1251,8.6875,10.5,13.25,-0.00390625,-0.04052734,0.9858398,0.2250977,0.008789063,-0.4414063
1253,8.625,10.3125,13.6875,-0.02001953,-0.06005859,0.9975586,0.2202148,0.01367188,-0.4414063
1254,9.4375,9.25,13,-0.04345703,-0.005371094,1.024414,0.2202148,0.01367188,-0.4414063
1256,10.4375,9.875,11.8125,-0.08300781,-0.03271484,0.9897461,0.2202148,0.01367188,-0.4414063
1257,7.25,20.5625,6.8125,0,0.005859375,1.159668,0.2202148,0.01367188,-0.4414063
1259,9.6875,22.875,4.6875,-0.02001953,0.04443359,0.9707031,0.2202148,0.01367188,-0.4414063
1260,15.1875,15.25,2.5,0.03515625,0.08740234,0.9204102,0.2202148,0.01367188,-0.4414063
1262,13.25,12.5,0.375,0.02294922,0.02539063,0.9355469,0.2202148,0.01367188,-0.4414063
1263,12.375,7.25,-0.1875,0.01904297,0.009765625,0.9780273,0.2148438,0.008789063,-0.4360352
1265,10.75,6.8125,-1.5,0.007324219,0.009765625,1.009277,0.2148438,0.008789063,-0.4360352
1266,10.125,8.875,-2.0625,-0.03955078,-0.02880859,1.032227,0.2148438,0.008789063,-0.4360352
1268,9.1875,11.875,-1.0625,-0.03564453,0.001953125,1.024414,0.2124023,0.01367188,-0.4438477
1269,8.4375,14.5,-1.6875,-0.1860352,-0.09521484,1.012695,0.2124023,0.01367188,-0.4438477
1271,6.625,22.1875,-6.25,0.007324219,0.05615234,1.036133,0.2124023,0.01367188,-0.4438477
1272,14.9375,16.6875,-8.5625,0.02685547,0.08740234,0.9858398,0.2124023,0.01367188,-0.4438477
1274,18.4375,9.8125,-11.5625,0.046875,0.09130859,0.9511719,0.2148438,0.01611328,-0.4360352
1275,16.6875,6.5625,-12.75,0.003417969,0.01757813,0.9780273,0.2148438,0.01611328,-0.4360352
1277,15.25,4.375,-10.1875,-0.01611328,-0.005371094,0.9780273,0.2148438,0.01611328,-0.4360352
1280,14,5.125,-5.875,-0.02392578,-0.07958984,1.05127,0.2275391,0.0009765625,-0.4414063
1282,13.0625,6.6875,-1.125,-0.03173828,-0.07568359,1.043945,0.2275391,0.0009765625,-0.4414063
1283,13.125,7.6875,1.5,-0.02001953,-0.04443359,1.032227,0.2275391,0.0009765625,-0.4414063
1285,13.6875,8.625,4.1875,-0.04345703,-0.04052734,1.024414,0.2329102,0.01367188,-0.4311523
1286,15.5625,7.9375,6.625,-0.01611328,-0.01318359,1.020508,0.2329102,0.01367188,-0.4311523
1288,17.75,7.0625,7.125,0.007324219,0.009765625,1.032227,0.2329102,0.01367188,-0.4311523
1289,18.9375,6.625,7.1875,-0.01611328,0.009765625,1.016602,0.2329102,0.01367188,-0.4311523
1291,18.8125,7.3125,8.6875,-0.03564453,-0.01708984,1.032227,0.2275391,0.01123047,-0.4384766
1292,19.6875,8.5625,12.125,-0.05957031,-0.02880859,1.02832,0.2275391,0.01123047,-0.4384766
1294,21.125,9.4375,14.1875,-0.05957031,-0.02099609,1.032227,0.2275391,0.01123047,-0.4384766
1295,23.125,10.125,15,-0.04736328,-0.02099609,1.024414,0.2304688,0.008789063,-0.4384766
1297,26.0625,10.0625,14.375,-0.03173828,0.01757813,1.032227,0.2304688,0.008789063,-0.4384766
1298,30.125,10.25,13.5,-0.02783203,0.02539063,1.012695,0.2304688,0.008789063,-0.4384766
1300,35.125,9.6875,13.0625,-0.03564453,0.02148438,1.012695,0.2304688,0.008789063,-0.4384766
1301,40.1875,9.5,12.1875,-0.02783203,0.04443359,1.036133,0.2304688,0.008789063,-0.4384766
1303,45.25,10.0625,11.4375,-0.04345703,0.03320313,1.059082,0.2304688,0.008789063,-0.4384766
1304,50.1875,10.625,12.25,-0.07128906,0.03710938,1.032227,0.2304688,0.008789063,-0.4384766
1306,52.3125,11.3125,13.5625,-0.07128906,-0.005371094,1.047852,0.2202148,-0.005859375,-0.4438477
1307,54.125,12.1875,14.625,-0.05957031,0.009765625,1.020508,0.2202148,-0.005859375,-0.4438477
1309,55.1875,12.75,14.875,-0.03955078,0.04833984,1.036133,0.2202148,-0.005859375,-0.4438477
1310,57.3125,13.375,14.375,-0.05957031,0.02539063,1.024414,0.2304688,-0.005859375,-0.4360352
1312,58.625,14.4375,14.5625,-0.05957031,0.02929688,1.02832,0.2304688,-0.005859375,-0.4360352
1313,59.625,14.375,14.8125,-0.05566406,0.02929688,1.040039,0.2304688,-0.005859375,-0.4360352
1315,61.5,15.0625,14.875,-0.05957031,0.04101563,1.024414,0.2304688,-0.005859375,-0.4360352
1316,63,15.625,15.5625,-0.04345703,0.02539063,1.009277,0.2329102,-0.005859375,-0.4360352
1318,64.4375,16.375,15.625,-0.05566406,0.05615234,1.032227,0.2329102,-0.005859375,-0.4360352
1319,66.375,16.75,15.9375,-0.05126953,0.05615234,1.036133,0.2329102,-0.005859375,-0.4360352
1321,67.0625,17.125,16.0625,-0.04736328,0.06396484,1.020508,0.2329102,-0.02587891,-0.4311523
1322,68.375,17.375,16.125,-0.04736328,0.07177734,1.032227,0.2329102,-0.02587891,-0.4311523
1324,68.9375,15.875,15.875,-0.03564453,0.06787109,0.9858398,0.2329102,-0.02587891,-0.4311523
1325,68.875,14.875,14.1875,-0.01220703,0.07568359,1.001465,0.2329102,-0.02587891,-0.4311523
1327,67.625,13.5,12.875,-0.03564453,0.09521484,0.9707031,0.2329102,-0.02587891,-0.4311523
1328,67.3125,10.625,9.375,-0.0078125,0.1108398,0.9819336,0.2329102,-0.02587891,-0.4311523
1330,67.6875,8.25,6.75,-0.02783203,0.09521484,0.9707031,0.2329102,-0.02587891,-0.4311523
1331,68.125,5.0625,5.9375,-0.02392578,0.08740234,1.001465,0.2329102,-0.03808594,-0.4384766
1333,68.5,2.625,6.125,-0.04345703,0.07958984,1.009277,0.2329102,-0.03808594,-0.4384766
1334,68.875,1.5625,6.8125,-0.06738281,0.07568359,1.001465,0.2329102,-0.03808594,-0.4384766
1336,70.625,0.75,8.125,-0.05566406,0.06005859,1.009277,0.2407227,-0.04296875,-0.4384766
1337,73,0,10.125,-0.07128906,0.06396484,1.040039,0.2407227,-0.04296875,-0.4384766
1339,77.5625,-1.1875,12.0625,-0.08300781,0.04833984,1.040039,0.2407227,-0.04296875,-0.4384766
1340,82.5625,-1.5,14.125,-0.05957031,0.09521484,1.047852,0.2407227,-0.04296875,-0.4384766
1342,85.8125,-2.6875,15.5,-0.03564453,0.1069336,1.02832,0.2275391,-0.05810547,-0.4311523
1343,88.1875,-3.625,17.4375,-0.05126953,0.1108398,1.016602,0.2275391,-0.05810547,-0.4311523
1345,90.4375,-5.5625,18.4375,-0.04736328,0.1303711,1.032227,0.2275391,-0.05810547,-0.4311523
1346,91.9375,-8.125,20.4375,-0.02392578,0.1186523,0.9667969,0.2329102,-0.04833984,-0.4414063
1348,91.5625,-12.0625,22.4375,-0.01220703,0.07958984,0.9589844,0.2329102,-0.04833984,-0.4414063
1349,89.25,-14.4375,19.8125,0.007324219,0.1694336,0.9936523,0.2329102,-0.04833984,-0.4414063
1351,88.1875,-15.875,16.6875,0.01904297,0.1811523,1.009277,0.2304688,-0.0703125,-0.4287109
1352,87.6875,-16.9375,18.875,-0.03173828,0.1342773,1.001465,0.2304688,-0.0703125,-0.4287109
1354,85.5,-17.125,18.5,-0.01611328,0.1108398,1.005371,0.2304688,-0.0703125,-0.4287109
1355,81.75,-17.9375,20.8125,-0.04736328,0.2783203,0.9667969,0.2304688,-0.0703125,-0.4287109
1357,79.875,-17.625,16.8125,-0.02001953,0.2666016,0.9936523,0.2329102,-0.08300781,-0.4311523
1358,79.1875,-17.5,16.75,-0.03564453,0.2119141,1.001465,0.2329102,-0.08300781,-0.4311523
1360,77.875,-17.3125,17,-0.02783203,0.2314453,1.024414,0.2329102,-0.08300781,-0.4311523
1361,75.4375,-18.8125,17.125,-0.03173828,0.1967773,0.9858398,0.2226563,-0.09521484,-0.4287109
1363,74.25,-20.0625,17.375,0.003417969,0.2236328,0.9667969,0.2226563,-0.09521484,-0.4287109
1364,73.8125,-20.3125,17,-0.02392578,0.2080078,0.9858398,0.2226563,-0.09521484,-0.4287109
1366,74.75,-20.5625,16.875,-0.02783203,0.2314453,1.009277,0.2226563,-0.09521484,-0.4287109
1367,76.25,-21.375,17.0625,-0.00390625,0.2236328,0.9858398,0.2226563,-0.09521484,-0.4287109
1369,78.125,-23.4375,17.375,-0.00390625,0.2314453,0.9667969,0.2226563,-0.09521484,-0.4287109
1370,79.5,-25.375,16.5625,0.003417969,0.2119141,0.9589844,0.2226563,-0.09521484,-0.4287109
1372,81.375,-27.5625,15.5625,-0.01220703,0.2431641,0.9707031,0.2226563,-0.1103516,-0.4233398
1373,82.75,-29.125,14.25,0.003417969,0.2314453,0.9550781,0.2226563,-0.1103516,-0.4233398
1375,84.5625,-30.625,12.0625,0.03076172,0.2470703,0.9589844,0.2226563,-0.1103516,-0.4233398
1377,86.4375,-32.1875,9.4375,0.02294922,0.2509766,0.9511719,0.2177734,-0.1152344,-0.4384766
1379,87.8125,-33.1875,6.5625,0.046875,0.2431641,0.9741211,0.2177734,-0.1152344,-0.4384766
1380,90.4375,-35,2,0.0625,0.2705078,0.9047852,0.2177734,-0.1152344,-0.4384766
1382,93.375,-37.5,-1.8125,0.05859375,0.2666016,0.9321289,0.2177734,-0.1152344,-0.4384766
1383,97.875,-40.4375,-5.9375,0.02685547,0.2626953,0.9321289,0.2202148,-0.1201172,-0.4311523
1385,103.5625,-42.3125,-9.9375,0.05078125,0.2431641,0.9355469,0.2202148,-0.1201172,-0.4311523
1386,108.4375,-44.5,-14.1875,0.06640625,0.2861328,0.9394531,0.2202148,-0.1201172,-0.4311523
1388,112.4375,-44.3125,-18.75,0.05078125,0.3251953,0.9355469,0.2124023,-0.1279297,-0.4208984
1389,117.25,-44.75,-23.1875,0.03515625,0.3134766,0.9589844,0.2124023,-0.1279297,-0.4208984
1391,124.5,-44.5625,-26,0.07470703,0.3603516,0.9511719,0.2124023,-0.1279297,-0.4208984
1392,118.6875,-38.375,-31.8125,0.05078125,0.418457,0.9858398,0.2124023,-0.1279297,-0.4208984
1394,118.3125,-37.6875,-33.75,0.05078125,0.3720703,0.9741211,0.2124023,-0.1279297,-0.4208984
1395,118.3125,-34.1875,-33.4375,0.03076172,0.3950195,0.9819336,0.2124023,-0.1279297,-0.4208984
1397,119.125,-31.625,-31.375,0.02294922,0.3793945,0.9936523,0.2124023,-0.1279297,-0.4208984
1398,119.625,-28.875,-27.8125,0.03076172,0.3720703,0.9858398,0.199707,-0.1577148,-0.418457
1400,118.125,-27.3125,-24.5625,0.05078125,0.3793945,0.9628906,0.199707,-0.1577148,-0.418457
1401,115.625,-26.4375,-21.4375,0.046875,0.3642578,0.9589844,0.199707,-0.1577148,-0.418457
1403,113.5,-26.25,-19.0625,0.05078125,0.3720703,0.9589844,0.1948242,-0.1674805,-0.4160156
1404,113,-25.875,-17.375,0.06640625,0.3447266,0.9204102,0.1948242,-0.1674805,-0.4160156
1406,114,-25.5625,-15.8125,0.0625,0.3408203,0.9321289,0.1948242,-0.1674805,-0.4160156
1407,115.5625,-26.5,-12.4375,0.105957,0.3212891,0.9125977,0.1948242,-0.1674805,-0.4160156
1409,116.875,-27.5,-14.25,0.0390625,0.3408203,0.8857422,0.1972656,-0.1674805,-0.4208984
1410,118.1875,-29.625,-14.875,0.08642578,0.3486328,0.8969727,0.1972656,-0.1674805,-0.4208984
1412,116.375,-32.4375,-15,0.09033203,0.3681641,0.8935547,0.1972656,-0.1674805,-0.4208984
1413,116.1875,-34.5625,-15.6875,0.08251953,0.3754883,0.8896484,0.199707,-0.1850586,-0.4082031
1415,116.5625,-37.3125,-16.75,0.05859375,0.3793945,0.8935547,0.199707,-0.1850586,-0.4082031
1416,115.875,-38.375,-17.3125,0.05859375,0.3833008,0.9204102,0.199707,-0.1850586,-0.4082031
1418,114.25,-38.75,-16.5,0.03515625,0.3603516,0.9008789,0.1845703,-0.1923828,-0.4082031
1419,111,-39.375,-16.1875,0.06640625,0.418457,0.8935547,0.1845703,-0.1923828,-0.4082031
1421,106.5625,-40.375,-16.8125,0.0546875,0.4223633,0.8969727,0.1845703,-0.1923828,-0.4082031
1422,104.0625,-41.6875,-17.125,0.06640625,0.4067383,0.8935547,0.1845703,-0.1923828,-0.4082031
1424,104.4375,-42.5625,-17.375,0.05859375,0.418457,0.9047852,0.1923828,-0.2148438,-0.3979492
1425,108,-43.125,-18.625,0.0546875,0.4418945,0.8779297,0.1923828,-0.2148438,-0.3979492
1427,114.3125,-44,-19.875,0.0390625,0.4301758,0.9047852,0.1923828,-0.2148438,-0.3979492
1428,121.3125,-44.375,-22.3125,0.05859375,0.449707,0.8935547,0.1821289,-0.2050781,-0.4033203
1430,127.6875,-43.875,-25.75,0.06640625,0.4575195,0.8779297,0.1821289,-0.2050781,-0.4033203
1431,133.1875,-44.5,-28.5,0.05859375,0.4770508,0.8549805,0.1821289,-0.2050781,-0.4033203
1433,137.5,-44.75,-29.8125,0.04296875,0.5043945,0.8623047,0.1821289,-0.2050781,-0.4033203
1434,139.5,-44.0625,-29.625,0.0390625,0.5239258,0.8701172,0.1821289,-0.2050781,-0.4033203
1436,139.6875,-43.125,-28.5625,0.03076172,0.5898438,0.8354492,0.1821289,-0.2050781,-0.4033203
1437,137.5625,-41.8125,-27.625,0.03515625,0.5859375,0.8276367,0.1821289,-0.2050781,-0.4033203
1439,135.25,-40.125,-26.125,0.007324219,0.6054688,0.847168,0.1845703,-0.2397461,-0.3930664
1440,133.9375,-36.875,-25.5625,0,0.625,0.8623047,0.1845703,-0.2397461,-0.3930664
1442,133.25,-32.875,-24.625,0.01123047,0.6132813,0.8779297,0.1845703,-0.2397461,-0.3930664
1443,132.125,-28.1875,-23.5625,0.003417969,0.6289063,0.8935547,0.1767578,-0.2573242,-0.390625
1445,130.625,-23.625,-23.25,0.01904297,0.6171875,0.8701172,0.1767578,-0.2573242,-0.390625
1446,131.3125,-20.875,-23.125,-0.01611328,0.609375,0.847168,0.1767578,-0.2573242,-0.390625
1448,131.5625,-19.3125,-24.5625,0.01904297,0.6054688,0.7929688,0.1767578,-0.2573242,-0.390625
1449,132.875,-19.625,-26.3125,0.07861328,0.6367188,0.7583008,0.1821289,-0.2524414,-0.390625
1451,134.75,-20.875,-29.375,0.04296875,0.6328125,0.7426758,0.1821289,-0.2524414,-0.390625
1452,137.625,-21.75,-31.9375,0.04296875,0.6484375,0.7583008,0.1821289,-0.2524414,-0.390625
1454,141.25,-20.125,-32.6875,0.03076172,0.6328125,0.7890625,0.1694336,-0.2646484,-0.3701172
1455,143.625,-15.4375,-31.75,0.007324219,0.6289063,0.7890625,0.1694336,-0.2646484,-0.3701172
1457,144.5,-8.75,-29.625,0.003417969,0.6328125,0.8125,0.1694336,-0.2646484,-0.3701172
1458,141.0625,-0.875,-26.3125,0.01513672,0.6328125,0.7851563,0.1845703,-0.2744141,-0.3598633
1460,136.375,5.125,-22.5,0.02685547,0.6445313,0.78125,0.1845703,-0.2744141,-0.3598633
1461,132.375,11,-18.125,0.046875,0.6640625,0.762207,0.1845703,-0.2744141,-0.3598633
1463,128.125,16.4375,-14,0.05078125,0.6875,0.7661133,0.1845703,-0.2744141,-0.3598633
1464,122.5625,20.875,-9.6875,0.02294922,0.7143555,0.7426758,0.1743164,-0.2895508,-0.3652344
1466,116.5625,21.625,-6.9375,0.07470703,0.7338867,0.6733398,0.1743164,-0.2895508,-0.3652344
1467,111.0625,19.5,-4.625,0.0703125,0.7495117,0.6655273,0.1743164,-0.2895508,-0.3652344
1469,106.3125,16.0625,-3.125,0.07470703,0.7612305,0.6621094,0.1767578,-0.2919922,-0.3476563
1470,103.9375,12.875,-1.875,0.09814453,0.7963867,0.6655273,0.1767578,-0.2919922,-0.3476563
1472,103.0625,10.9375,-0.4375,0.07861328,0.7807617,0.6542969,0.1767578,-0.2919922,-0.3476563
1474,103.3125,9.6875,0.6875,0.0390625,0.7807617,0.6621094,0.1767578,-0.2919922,-0.3476563
1476,104.0625,10,2.5,0.0390625,0.7807617,0.6655273,0.1694336,-0.3071289,-0.3476563
1477,105,10.5,3.3125,0.03515625,0.753418,0.6542969,0.1694336,-0.3071289,-0.3476563
1479,105.375,11,3.9375,0.03515625,0.753418,0.6850586,0.1694336,-0.3071289,-0.3476563
1480,105.5,11.9375,3.625,0.03515625,0.7651367,0.6928711,0.1845703,-0.3095703,-0.3295898
1482,105.125,14.5625,3.875,0.02685547,0.7495117,0.6733398,0.1845703,-0.3095703,-0.3295898
1483,105,18.75,5.0625,0.01123047,0.753418,0.7158203,0.1845703,-0.3095703,-0.3295898
1485,103.875,23.9375,7.25,0,0.7612305,0.6967773,0.1743164,-0.3168945,-0.324707
1486,101,28.3125,9.625,0.01904297,0.7651367,0.6772461,0.1743164,-0.3168945,-0.324707
1488,96.9375,30.5625,11.8125,0.04296875,0.7768555,0.6386719,0.1743164,-0.3168945,-0.324707
1489,93.1875,31.625,12.3125,0.0546875,0.7729492,0.6347656,0.1743164,-0.3168945,-0.324707
1491,95.3125,30.75,12.5625,0.05078125,0.7612305,0.6308594,0.1767578,-0.3344727,-0.3193359
1492,101,30.125,11.75,0.05078125,0.7495117,0.6040039,0.1767578,-0.3344727,-0.3193359
1494,108.5625,29.375,11.25,0.05078125,0.7651367,0.6235352,0.1767578,-0.3344727,-0.3193359
1495,115.375,29.375,11.9375,0.04296875,0.769043,0.6196289,0.1870117,-0.3442383,-0.3095703
1497,120.0625,29.75,12.4375,0.05859375,0.7768555,0.6079102,0.1870117,-0.3442383,-0.3095703
1498,123.5,29.125,12.6875,0.0625,0.7885742,0.5810547,0.1870117,-0.3442383,-0.3095703
1500,125.625,27.8125,12.875,0.0390625,0.7963867,0.5537109,0.1870117,-0.3442383,-0.3095703
1501,127.25,24.3125,12.75,0.0625,0.8120117,0.4960938,0.1870117,-0.3442383,-0.3095703
1503,127.6875,19.6875,11.125,0.0703125,0.831543,0.4614258,0.1870117,-0.3442383,-0.3095703
1504,127.625,14.5,8.8125,0.08642578,0.8706055,0.4804688,0.1870117,-0.3442383,-0.3095703
1506,127.4375,11.0625,6.9375,0.0625,0.8354492,0.4804688,0.1791992,-0.3442383,-0.2817383
1507,128.4375,9.0625,4.25,0.0546875,0.8432617,0.5424805,0.1791992,-0.3442383,-0.2817383
1509,130.125,9.3125,3.6875,0.03515625,0.8588867,0.5537109,0.1791992,-0.3442383,-0.2817383
1510,133.3125,11.4375,4.125,0.01904297,0.8276367,0.5810547,0.199707,-0.359375,-0.2714844
1512,135.75,15.5625,4.375,0.01904297,0.7885742,0.5922852,0.199707,-0.359375,-0.2714844
1513,139.125,19.3125,5.0625,0.01123047,0.8120117,0.5576172,0.199707,-0.359375,-0.2714844
1515,141.5625,22.4375,5,0.0390625,0.800293,0.5385742,0.199707,-0.359375,-0.2714844
1516,142.6875,25,4.875,0.05859375,0.8237305,0.4882813,0.1894531,-0.371582,-0.2636719
1518,141.25,25.9375,4.4375,0.06640625,0.8276367,0.4765625,0.1894531,-0.371582,-0.2636719
1519,138.4375,24.4375,4.6875,0.07470703,0.831543,0.4614258,0.1894531,-0.371582,-0.2636719
1521,133.125,22.125,4.1875,0.08642578,0.8393555,0.4536133,0.1791992,-0.3818359,-0.2358398
1522,126.75,19.75,3.625,0.09423828,0.8432617,0.434082,0.1791992,-0.3818359,-0.2358398
1524,119.875,18.0625,4.125,0.08642578,0.815918,0.4458008,0.1791992,-0.3818359,-0.2358398
1525,115.875,16.4375,5.8125,0.0703125,0.8276367,0.465332,0.1821289,-0.3789063,-0.2436523
1527,116.125,15.4375,7.4375,0.0625,0.831543,0.4765625,0.1821289,-0.3789063,-0.2436523
1528,117.4375,15.125,11.125,0.05078125,0.8276367,0.4726563,0.1821289,-0.3789063,-0.2436523
1530,119.6875,15.4375,14.375,0.046875,0.8393555,0.4575195,0.1821289,-0.3789063,-0.2436523
1531,120.75,15.5625,16.4375,0.03515625,0.847168,0.4614258,0.1870117,-0.3789063,-0.230957
1533,120.875,14.6875,17.5,0.046875,0.847168,0.4267578,0.1870117,-0.3789063,-0.230957
1534,119.3125,12.5625,18.5625,0.05859375,0.862793,0.3955078,0.1870117,-0.3789063,-0.230957
1536,118.0625,9.0625,20.3125,-0.1069336,0.815918,0.3417969,0.1894531,-0.394043,-0.2128906
1537,114.6875,11.4375,19.25,0.1572266,0.9130859,0.4228516,0.1894531,-0.394043,-0.2128906
1539,120.375,2.4375,19.8125,0.03076172,0.9404297,0.3300781,0.1894531,-0.394043,-0.2128906
1540,115.8125,0.625,19.9375,0.05078125,0.9326172,0.3183594,0.1894531,-0.394043,-0.2128906
1542,114.1875,-3.0625,18.5,0.08251953,0.9248047,0.3110352,0.1845703,-0.4091797,-0.203125
1543,110.9375,-7.375,17.375,0.04296875,0.9248047,0.3149414,0.1845703,-0.4091797,-0.203125
1545,109.125,-9.3125,15.6875,0.0390625,0.9248047,0.3378906,0.1845703,-0.4091797,-0.203125
1546,109.1875,-10.0625,14.4375,0.02685547,0.9326172,0.3496094,0.1923828,-0.3989258,-0.1953125
1548,107.75,-8.5,13.8125,0.03515625,0.9208984,0.3725586,0.1923828,-0.3989258,-0.1953125
1549,107.125,-5.6875,12.25,0.046875,0.9208984,0.3955078,0.1923828,-0.3989258,-0.1953125
1551,105.8125,-2.3125,10.9375,0.0390625,0.9169922,0.3920898,0.1845703,-0.4213867,-0.1826172
1552,105.1875,1.625,9.375,0.03515625,0.9169922,0.3496094,0.1845703,-0.4213867,-0.1826172
1554,106,3.9375,7.5,0.03515625,0.8974609,0.3569336,0.1845703,-0.4213867,-0.1826172
1555,105.25,4.625,5.875,0.05859375,0.9169922,0.3071289,0.1845703,-0.4213867,-0.1826172
1557,102,5,4.6875,0.06640625,0.9169922,0.2568359,0.1870117,-0.4189453,-0.1674805
1558,97.875,3.6875,4.125,0.05859375,0.9013672,0.2836914,0.1870117,-0.4189453,-0.1674805
1560,92.875,0.9375,4.3125,0.0703125,0.9443359,0.237793,0.1870117,-0.4189453,-0.1674805
1561,87.875,-2.625,3.875,0.07861328,0.9755859,0.2412109,0.171875,-0.4316406,-0.1625977
1563,84.3125,-7.375,3.9375,0.06640625,0.9365234,0.237793,0.171875,-0.4316406,-0.1625977
1564,81.75,-11.5,3.75,0.07470703,0.9638672,0.2338867,0.171875,-0.4316406,-0.1625977
1566,81,-15.3125,4.5625,0.0390625,0.9716797,0.2299805,0.171875,-0.4316406,-0.1625977
1567,81.4375,-18.75,5.875,0.06640625,0.9560547,0.2338867,0.171875,-0.4316406,-0.1625977
1569,81.75,-21.25,7.1875,0.04296875,0.9443359,0.2451172,0.171875,-0.4316406,-0.1625977
1571,82.75,-21.125,7.6875,0.046875,0.9677734,0.2763672,0.171875,-0.4316406,-0.1625977
1573,83.9375,-19.125,8,0.02294922,0.9912109,0.2724609,0.1791992,-0.4316406,-0.1523438
1574,85.125,-15.8125,8.125,0.02294922,0.9716797,0.2685547,0.1791992,-0.4316406,-0.1523438
1576,85.6875,-13.0625,8.3125,0.01904297,0.9638672,0.2529297,0.1791992,-0.4316406,-0.1523438
1577,86.9375,-11.4375,7.125,0.0390625,0.9638672,0.222168,0.1821289,-0.4213867,-0.1347656
1579,87.6875,-11,4.75,0.05078125,0.9794922,0.2104492,0.1821289,-0.4213867,-0.1347656
1580,80.3125,-2.0625,6.9375,0.09033203,0.9599609,0.2260742,0.1821289,-0.4213867,-0.1347656
1582,92.75,-7.875,-2.125,0.01904297,0.9794922,0.1992188,0.1821289,-0.4213867,-0.1347656
1583,93.625,-8.625,-1.0625,0.05859375,0.9794922,0.206543,0.1743164,-0.4365234,-0.1420898
1585,96.75,-7.125,-2.875,0.04296875,0.9482422,0.1640625,0.1743164,-0.4365234,-0.1420898
1586,101.3125,-9.8125,-3.0625,0.05859375,0.9599609,0.1333008,0.1743164,-0.4365234,-0.1420898
1588,104.125,-11.4375,-3,0.0546875,0.9482422,0.1567383,0.171875,-0.434082,-0.1191406
1589,106.8125,-14.9375,-4.125,0.08251953,0.9873047,0.1450195,0.171875,-0.434082,-0.1191406
1591,106.6875,-19.625,-5.1875,0.0625,0.9990234,0.1025391,0.171875,-0.434082,-0.1191406
1592,104.5625,-23.0625,-5.8125,0.09033203,0.9990234,0.1220703,0.1791992,-0.4438477,-0.1118164
1594,101.25,-23.75,-4.875,0.08642578,0.9951172,0.137207,0.1791992,-0.4438477,-0.1118164
1595,98.875,-24.125,-4,0.08251953,1.00293,0.137207,0.1791992,-0.4438477,-0.1118164
1597,95.5625,-21.625,-2.25,0.0625,1.006836,0.152832,0.1791992,-0.4438477,-0.1118164
1598,90.875,-16.625,-0.3125,0.04296875,0.9990234,0.1757813,0.1743164,-0.4365234,-0.1040039
1600,88.5,-10.1875,1.6875,0.02685547,0.9677734,0.1796875,0.1743164,-0.4365234,-0.1040039
1601,87.1875,-4,4.125,0.03515625,0.9716797,0.1992188,0.1743164,-0.4365234,-0.1040039
1603,87.6875,1.8125,4.25,0.03515625,0.9677734,0.1953125,0.1694336,-0.4511719,-0.08886719
1604,89.8125,7.5,5.125,0.01904297,0.9482422,0.1796875,0.1694336,-0.4511719,-0.08886719
1606,94.4375,13.25,6.3125,0.03076172,0.9248047,0.1914063,0.1694336,-0.4511719,-0.08886719
1607,99.0625,17.75,7.125,0.0390625,0.9482422,0.1679688,0.1694336,-0.4511719,-0.08886719
1609,102.375,22.25,7.6875,0.046875,0.9443359,0.1606445,0.1694336,-0.4511719,-0.08886719
1610,105,25.125,6.8125,0.07470703,0.9560547,0.1025391,0.1694336,-0.4511719,-0.08886719
1612,104.9375,27.5625,5.875,0.07470703,0.9482422,0.1220703,0.1694336,-0.4511719,-0.08886719
1613,102.375,29.875,3.8125,0.07470703,0.9677734,0.09472656,0.1743164,-0.4462891,-0.06591797
1615,98,30.375,2.5625,0.08642578,0.9638672,0.09472656,0.1743164,-0.4462891,-0.06591797
1616,92.25,30.6875,2,0.06640625,0.9873047,0.07568359,0.1743164,-0.4462891,-0.06591797
1618,86,30.625,1.4375,0.05859375,0.9716797,0.07568359,0.1870117,-0.4487305,-0.05859375
1619,77.5625,30.3125,1.8125,0.08251953,0.9716797,0.07177734,0.1870117,-0.4487305,-0.05859375
1621,70.8125,29.25,2.0625,0.06640625,0.9599609,0.06005859,0.1870117,-0.4487305,-0.05859375
1622,66.375,28.25,3.3125,0.0546875,0.9638672,0.07568359,0.1870117,-0.4487305,-0.05859375
1624,65,29.3125,4,0.05078125,0.9521484,0.08691406,0.1743164,-0.4462891,-0.04833984
1625,65.625,31.625,3.75,0.03515625,0.9482422,0.08349609,0.1743164,-0.4462891,-0.04833984
1627,66.5625,33.9375,3.25,0.04296875,0.9755859,0.04101563,0.1743164,-0.4462891,-0.04833984
1628,68.1875,35.3125,2.625,0.0703125,0.9873047,0.04833984,0.171875,-0.4536133,-0.04101563
1630,68.75,34.25,3.0625,0.06640625,0.9794922,-0.01269531,0.171875,-0.4536133,-0.04101563
1631,69,32.25,2.875,0.05859375,0.9833984,-0.02050781,0.171875,-0.4536133,-0.04101563
1633,68.25,29.5625,3.1875,0.046875,0.9873047,-0.03173828,0.171875,-0.4536133,-0.04101563
1634,67.25,26.4375,3.3125,0.0625,1.010742,-0.01660156,0.171875,-0.4536133,-0.04101563
1636,66.25,23.5,3.3125,0.03515625,0.9873047,-0.01660156,0.171875,-0.4536133,-0.04101563
1637,66.25,20.625,2.8125,0.05078125,1.006836,-0.06689453,0.171875,-0.4536133,-0.04101563
1639,66.9375,18.25,0.8125,0.0546875,0.9833984,-0.03564453,0.1767578,-0.4462891,-0.03076172
1640,66.3125,17.1875,0.4375,0.0390625,0.9912109,-0.01660156,0.1767578,-0.4462891,-0.03076172
1642,65.875,17.8125,-0.6875,0.05859375,0.9755859,-0.0009765625,0.1767578,-0.4462891,-0.03076172
1643,66.0625,20,-1.8125,0.05078125,0.9833984,0.02539063,0.1821289,-0.4589844,-0.02294922
1645,65.4375,22.4375,-3.25,0.05078125,0.9912109,0.04101563,0.1821289,-0.4589844,-0.02294922
1646,63.5,25,-4.625,0.046875,0.9794922,0.01367188,0.1821289,-0.4589844,-0.02294922
1648,60.3125,26.875,-6.875,0.08251953,0.9990234,-0.008789063,0.1821289,-0.4589844,-0.02294922
1649,55.0625,28.6875,-9.1875,0.0546875,1.014648,0.002441406,0.1870117,-0.4536133,-0.01269531
1651,49,28.75,-11.3125,0.06640625,1.041504,-0.004882813,0.1870117,-0.4536133,-0.01269531
1652,41.5625,29.5,-14.1875,0.0546875,1.014648,-0.01269531,0.1870117,-0.4536133,-0.01269531
1654,37.4375,30,-16,0.01904297,1.014648,-0.0009765625,0.1845703,-0.4487305,-0.0004882813
1655,35.3125,32,-16.625,0.03076172,1.026367,0.01367188,0.1845703,-0.4487305,-0.0004882813
1657,33.875,35.4375,-17.5,0.02294922,1.010742,0.03320313,0.1845703,-0.4487305,-0.0004882813
1658,33,38.8125,-17.625,0.02294922,0.9873047,0.02148438,0.1791992,-0.456543,-0.005371094
1660,33.1875,40.9375,-17.5,0.01904297,0.9873047,0.01367188,0.1791992,-0.456543,-0.005371094
1661,34.875,40.6875,-17.5,0.03515625,0.9873047,-0.02050781,0.1791992,-0.456543,-0.005371094
1663,35.5,39.375,-17.125,0.05859375,0.9794922,-0.04345703,0.1791992,-0.456543,-0.005371094
1664,35.75,36.625,-17.3125,0.04296875,1.00293,-0.07421875,0.1923828,-0.4614258,-0.0004882813
1666,34.3125,32.875,-16.9375,0.046875,0.9873047,-0.06298828,0.1923828,-0.4614258,-0.0004882813
1669,31.8125,28.6875,-19.5,0.05078125,0.9912109,-0.078125,0.1923828,-0.4614258,-0.0004882813
1671,30.3125,24.5625,-21.25,0.04296875,1.014648,-0.09765625,0.1923828,-0.4438477,0.006835938
1672,29.9375,18.9375,-20.5625,0.04296875,0.9873047,-0.1206055,0.1923828,-0.4438477,0.006835938
1674,29.0625,15,-20.3125,0.05078125,0.9951172,-0.08984375,0.1923828,-0.4438477,0.006835938
1675,30,10.0625,-23.25,0.02294922,0.9794922,-0.09765625,0.1923828,-0.4438477,0.006835938
1677,31.4375,6.5625,-24.0625,0.05859375,0.9677734,-0.08984375,0.1923828,-0.4438477,0.006835938
1678,31.875,5.375,-23.625,0.05859375,0.9638672,-0.1088867,0.1923828,-0.4438477,0.006835938
1680,32.5,3.125,-23.125,0.05078125,0.9443359,-0.09765625,0.1923828,-0.4438477,0.006835938
1681,34.1875,0.5625,-22.75,0.04296875,0.9677734,-0.1015625,0.1894531,-0.4389648,0.01953125
1683,34.9375,-2.6875,-22.4375,0.05078125,0.9560547,-0.08984375,0.1894531,-0.4389648,0.01953125
1684,34.4375,-5.25,-21.4375,0.05859375,0.9833984,-0.08203125,0.1894531,-0.4389648,0.01953125
1686,32.25,-7.4375,-20.1875,0.05078125,0.9794922,-0.078125,0.1972656,-0.4414063,0.02734375
1687,29.1875,-9.1875,-18.6875,0.04296875,0.9794922,-0.1054688,0.1972656,-0.4414063,0.02734375
1689,27.0625,-10.5625,-17.625,0.03076172,0.9560547,-0.08984375,0.1972656,-0.4414063,0.02734375
1690,25.5,-11.0625,-16.625,0.03515625,0.9794922,-0.08984375,0.1972656,-0.4414063,0.02734375
1692,24.25,-10.75,-15.875,0.02294922,0.9794922,-0.08203125,0.1972656,-0.4462891,0.01708984
1693,24,-10.375,-14.875,0.03076172,0.9794922,-0.08984375,0.1972656,-0.4462891,0.01708984
1695,23.1875,-10.375,-14.25,0.02685547,0.9716797,-0.09375,0.1972656,-0.4462891,0.01708984
1696,23.125,-10.8125,-13.5,0.02685547,0.9599609,-0.09375,0.1845703,-0.4462891,0.01953125
1698,24.25,-11.8125,-12.25,0.01904297,0.9716797,-0.09765625,0.1845703,-0.4462891,0.01953125
1699,26.625,-13.125,-11.75,0.03515625,0.9833984,-0.09375,0.1845703,-0.4462891,0.01953125
1701,27.5,-13.8125,-11.5,0.03515625,0.9833984,-0.1206055,0.1845703,-0.4462891,0.01953125
1702,27.4375,-14.5,-11.4375,0.03515625,0.9990234,-0.1323242,0.1845703,-0.4462891,0.01953125
1704,25.75,-15.4375,-11.1875,0.02685547,1.018555,-0.1591797,0.1845703,-0.4462891,0.01953125
1705,23.5625,-16.125,-11.5625,0.02685547,1.018555,-0.1474609,0.1845703,-0.4462891,0.01953125
1707,21.8125,-16.75,-11.75,0.01904297,1.038086,-0.1245117,0.199707,-0.4414063,0.02734375
1708,20.625,-17.375,-12.4375,-0.00390625,1.03418,-0.1323242,0.199707,-0.4414063,0.02734375
1710,19.5,-16.625,-13.4375,0.01904297,1.03418,-0.1206055,0.199707,-0.4414063,0.02734375
1711,18.3125,-15.5,-13.75,0,1.030273,-0.1323242,0.2050781,-0.4438477,0.03222656
1713,18,-14.4375,-13.875,0.01904297,0.9912109,-0.078125,0.2050781,-0.4438477,0.03222656
1714,17.5,-13.25,-14.125,0.01904297,0.9912109,-0.09765625,0.2050781,-0.4438477,0.03222656
1716,17.25,-11.5625,-14.0625,0.01123047,0.9951172,-0.09375,0.2050781,-0.4438477,0.03222656
1717,16.625,-9.8125,-13.6875,0.03076172,1.014648,-0.04736328,0.2075195,-0.434082,0.02978516
1719,15.75,-8.0625,-13.3125,0.01513672,0.9990234,-0.1088867,0.2075195,-0.434082,0.02978516
1720,13.9375,-6.75,-12.0625,0.01904297,0.9873047,-0.08984375,0.2075195,-0.434082,0.02978516
1722,11.875,-5.5,-11,0.02685547,1.00293,-0.1323242,0.2075195,-0.4438477,0.03466797
1723,9.0625,-4.6875,-9.5,0.02294922,0.9990234,-0.128418,0.2075195,-0.4438477,0.03466797
1725,7.0625,-5.25,-9.625,0.01123047,0.9755859,-0.1088867,0.2075195,-0.4438477,0.03466797
1726,4.6875,-5.25,-6.5,0.01513672,0.9873047,-0.1245117,0.199707,-0.434082,0.03466797
1728,2.6875,-4.125,-3.8125,-0.01220703,0.9677734,-0.1088867,0.199707,-0.434082,0.03466797
1729,3.625,-2.125,-2.1875,0.05859375,1.04541,-0.08984375,0.199707,-0.434082,0.03466797
1731,8.9375,-7,-4.8125,0,0.9990234,-0.09375,0.199707,-0.434082,0.03466797
1732,9.5,-3.0625,-4.125,0.04296875,0.9990234,-0.1166992,0.2075195,-0.4438477,0.03710938
1734,10.3125,-2.25,-4.5625,0,0.9873047,-0.1054688,0.2075195,-0.4438477,0.03710938
1735,10.0625,-1.8125,-3.25,0.007324219,0.9755859,-0.1088867,0.2075195,-0.4438477,0.03710938
1737,9.0625,-1.625,-3.4375,0.01513672,0.9794922,-0.1401367,0.2050781,-0.4438477,0.04003906
1738,8.9375,-1.25,-2.75,0.003417969,0.9755859,-0.112793,0.2050781,-0.4438477,0.04003906
1740,9.4375,-0.75,-2.875,0.003417969,0.9716797,-0.1166992,0.2050781,-0.4438477,0.04003906
1741,10.25,0.1875,-3.25,0.007324219,0.9794922,-0.1245117,0.2050781,-0.4438477,0.04003906
1743,11.375,1.5,-3.8125,-0.02392578,1.010742,-0.1206055,0.2050781,-0.4438477,0.04003906
1744,12.625,3.3125,-5.0625,-0.02001953,0.9912109,-0.08984375,0.2050781,-0.4438477,0.04003906
1746,12.3125,5.375,-5.5625,-0.01611328,1.006836,-0.1245117,0.2050781,-0.4438477,0.04003906
1747,11.6875,7.125,-5.9375,-0.02001953,1.00293,-0.1166992,0.2075195,-0.4365234,0.03466797
1749,10.25,8.875,-6.1875,-0.01611328,1.00293,-0.08984375,0.2075195,-0.4365234,0.03466797
1750,8.5625,10.1875,-5.625,-0.0078125,1.014648,-0.1206055,0.2075195,-0.4365234,0.03466797
1752,6.8125,10.8125,-5.3125,-0.0078125,0.9873047,-0.1088867,0.2021484,-0.4316406,0.04736328
1753,5,11.4375,-5.125,-0.0078125,1.03418,-0.1088867,0.2021484,-0.4316406,0.04736328
1755,3.4375,11.5,-5.1875,-0.0078125,1.022461,-0.1166992,0.2021484,-0.4316406,0.04736328
1756,2.6875,10.75,-5.25,0.007324219,1.018555,-0.144043,0.2021484,-0.4316406,0.04736328
1758,1.9375,10.1875,-5.4375,-0.0078125,0.9912109,-0.144043,0.2050781,-0.434082,0.04003906
1759,1.5625,8.875,-5.4375,0,0.9833984,-0.1513672,0.2050781,-0.434082,0.04003906
1761,0.9375,7.875,-5.4375,-0.00390625,1.010742,-0.1323242,0.2050781,-0.434082,0.04003906
1762,0.0625,6.4375,-5.1875,-0.00390625,1.00293,-0.1362305,0.2124023,-0.4389648,0.03466797
1764,-0.8125,4.25,-5.125,0.003417969,0.9873047,-0.144043,0.2124023,-0.4389648,0.03466797
1766,-1.125,2.4375,-4.8125,0,0.9912109,-0.1513672,0.2124023,-0.4389648,0.03466797
1768,-0.625,0.8125,-4.375,0,0.9990234,-0.1401367,0.2124023,-0.4389648,0.03466797
1769,-1.125,-0.3125,-3.9375,-0.0078125,0.9833984,-0.1591797,0.2124023,-0.4389648,0.03466797
1771,-1.625,-1,-3.8125,-0.02001953,0.9833984,-0.1513672,0.2124023,-0.4389648,0.03466797
1772,-2,-2.3125,-3.3125,-0.04736328,0.9638672,-0.128418,0.2124023,-0.4389648,0.03466797
1774,-1.0625,-3.625,-2.875,-0.01220703,0.9755859,-0.1323242,0.2099609,-0.4365234,0.04248047
1775,-0.125,-4.25,-2.6875,-0.01611328,0.9873047,-0.1474609,0.2099609,-0.4365234,0.04248047
1777,-0.0625,-4.8125,-2.8125,-0.01220703,0.9912109,-0.1513672,0.2099609,-0.4365234,0.04248047
1778,-1,-5,-2.5,-0.01220703,0.9990234,-0.1591797,0.2148438,-0.434082,0.04248047
1780,-1.75,-4.9375,-2.625,-0.01611328,1.00293,-0.1206055,0.2148438,-0.434082,0.04248047
1781,-1.625,-4.3125,-2.0625,-0.02001953,1.03418,-0.1245117,0.2148438,-0.434082,0.04248047
1783,-1.6875,-3.6875,-2.1875,-0.02001953,0.9990234,-0.1323242,0.2148438,-0.434082,0.04248047
1784,-1.5625,-3,-2.875,-0.01220703,0.9990234,-0.112793,0.2148438,-0.434082,0.04492188
1786,-2.4375,-2.0625,-3.5625,-0.02001953,1.018555,-0.1245117,0.2148438,-0.434082,0.04492188
1787,-3.8125,-1.6875,-4,-0.01611328,1.026367,-0.1362305,0.2148438,-0.434082,0.04492188
1789,-4.875,-1.375,-4.0625,-0.02001953,1.006836,-0.1513672,0.2099609,-0.4365234,0.03710938
1790,-6.125,-1.0625,-4.5,-0.04736328,1.010742,-0.1245117,0.2099609,-0.4365234,0.03710938
1792,-7,-1,-4.875,-0.02001953,1.041504,-0.1206055,0.2099609,-0.4365234,0.03710938
1793,-7.5625,-0.625,-5.4375,-0.02001953,1.006836,-0.1323242,0.2177734,-0.4365234,0.02734375
1795,-7.5625,-0.1875,-5.375,-0.01611328,1.038086,-0.1362305,0.2177734,-0.4365234,0.02734375
1796,-6.6875,1.0625,-5.625,-0.03173828,1.014648,-0.1362305,0.2177734,-0.4365234,0.02734375
1798,-6.25,1.6875,-5.6875,-0.02783203,1.030273,-0.1245117,0.2177734,-0.4365234,0.02734375
1799,-5.1875,2.1875,-5.375,-0.02392578,0.9990234,-0.128418,0.2099609,-0.4316406,0.03222656
1801,-4.6875,1.625,-4.4375,-0.02783203,0.9951172,-0.128418,0.2099609,-0.4316406,0.03222656
1802,-3.1875,1.375,-3.625,-0.01611328,0.9833984,-0.112793,0.2099609,-0.4316406,0.03222656
1804,-1.625,1.9375,-2.875,-0.01220703,0.9794922,-0.0859375,0.2099609,-0.434082,0.03466797
1805,-1.125,3.0625,-2.5,-0.00390625,1.00293,-0.1054688,0.2099609,-0.434082,0.03466797
1807,-1.375,3.1875,-1.8125,-0.0078125,1.010742,-0.09765625,0.2099609,-0.434082,0.03466797
1808,-2.3125,2.9375,-1.375,-0.01611328,0.9912109,-0.1054688,0.2099609,-0.434082,0.03466797
1810,-3.1875,3.1875,-0.75,-0.02001953,0.9990234,-0.112793,0.2099609,-0.434082,0.03466797
1811,-3.625,3.75,0.125,-0.02392578,1.018555,-0.1054688,0.2099609,-0.434082,0.03466797
1813,-4.1875,4.625,0.9375,-0.01611328,1.00293,-0.1245117,0.2099609,-0.434082,0.03466797
1814,-4.75,5.8125,0.875,-0.01611328,0.9912109,-0.1088867,0.2099609,-0.4438477,0.03466797
1816,-5,6.8125,0.875,-0.02001953,1.018555,-0.1245117,0.2099609,-0.4438477,0.03466797
1817,-6.0625,6.625,0.375,-0.01611328,0.9990234,-0.1513672,0.2099609,-0.4438477,0.03466797
1819,-6.6875,6.5625,-0.0625,-0.02001953,1.010742,-0.1591797,0.2148438,-0.434082,0.04248047
1820,-7.5,5.8125,-0.3125,-0.01220703,1.014648,-0.144043,0.2148438,-0.434082,0.04248047
1822,-8.9375,5.4375,-0.1875,-0.03173828,1.030273,-0.1401367,0.2148438,-0.434082,0.04248047
1823,-9.8125,4.9375,-0.0625,-0.01220703,1.026367,-0.1748047,0.2148438,-0.434082,0.04248047
1825,-10.4375,4.625,0.4375,-0.02001953,0.9912109,-0.144043,0.2202148,-0.4287109,0.03466797
1826,-10.625,3.8125,0.625,-0.02001953,1.00293,-0.1591797,0.2202148,-0.4287109,0.03466797
1828,-10.125,3.0625,1.3125,-0.00390625,1.006836,-0.1513672,0.2202148,-0.4287109,0.03466797
1829,-9.5,1.75,1.75,-0.02001953,1.010742,-0.1474609,0.2099609,-0.434082,0.03466797
1831,-10.3125,0.4375,1.6875,-0.0078125,0.9833984,-0.1591797,0.2099609,-0.434082,0.03466797
1832,-10.8125,-0.6875,2.125,0,0.9912109,-0.1591797,0.2099609,-0.434082,0.03466797
1834,-10.9375,-1.5,2.375,-0.02001953,1.00293,-0.1245117,0.2099609,-0.434082,0.03466797
1835,-10.3125,-1.375,2.4375,-0.00390625,0.9873047,-0.1206055,0.2099609,-0.434082,0.03466797
1837,-9.8125,-1.0625,2.5625,-0.02783203,0.9951172,-0.078125,0.2099609,-0.434082,0.03466797
1838,-8.8125,-0.625,2.5,-0.02783203,0.9951172,-0.09765625,0.2099609,-0.434082,0.03466797
1840,-7.6875,-0.875,2.25,-0.01220703,0.9873047,-0.1245117,0.2124023,-0.4365234,0.03466797
1841,-6,-1.6875,1.9375,-0.0078125,1.00293,-0.1166992,0.2124023,-0.4365234,0.03466797
1843,-4.5,-1.8125,1.625,-0.03564453,1.010742,-0.1088867,0.2124023,-0.4365234,0.03466797
1844,-3.875,-1.1875,1.3125,-0.01220703,0.9873047,-0.1054688,0.2124023,-0.434082,0.03710938
1846,-4.0625,0.125,1.125,-0.03173828,1.010742,-0.08984375,0.2124023,-0.434082,0.03710938
1847,-5.0625,1.1875,1.0625,0.003417969,1.018555,-0.1054688,0.2124023,-0.434082,0.03710938
1849,-7.3125,1.875,0.8125,-0.01611328,1.006836,-0.1206055,0.2124023,-0.434082,0.03710938
1850,-9.9375,2.3125,0.6875,-0.02001953,0.9912109,-0.1206055,0.2050781,-0.4365234,0.03710938
1852,-11.625,2.5625,0.75,-0.02783203,1.010742,-0.1088867,0.2050781,-0.4365234,0.03710938
1853,-12.3125,2.625,0.875,0,0.9873047,-0.08984375,0.2050781,-0.4365234,0.03710938
1855,-11.8125,2.4375,1.5625,-0.01611328,0.9873047,-0.112793,0.2075195,-0.4365234,0.02978516
1856,-10.3125,2.0625,1.9375,-0.01611328,0.9873047,-0.1088867,0.2075195,-0.4365234,0.02978516
1858,-8.0625,0.875,2.125,-0.0078125,0.9794922,-0.09375,0.2075195,-0.4365234,0.02978516
1859,-6.9375,0.3125,2.25,0.003417969,0.9677734,-0.08203125,0.2099609,-0.4365234,0.03466797
1861,-6.125,-0.4375,2.6875,-0.00390625,0.9794922,-0.09765625,0.2099609,-0.4365234,0.03466797
1863,-6.375,-1.5625,2.625,-0.00390625,0.9873047,-0.1054688,0.2099609,-0.4365234,0.03466797
1865,-6.4375,-2.5625,2.6875,-0.01220703,0.9755859,-0.1088867,0.2099609,-0.4365234,0.03466797
1866,-6.9375,-2.9375,2.8125,-0.02001953,1.00293,-0.09375,0.2177734,-0.4365234,0.03222656
1868,-6.9375,-3.5625,2.75,-0.02392578,0.9912109,-0.1015625,0.2177734,-0.4365234,0.03222656
1869,-6.9375,-4,2.6875,-0.02001953,1.00293,-0.1206055,0.2177734,-0.4365234,0.03222656
1871,-7.0625,-3.75,2.5,-0.0078125,1.018555,-0.1015625,0.2075195,-0.4389648,0.03466797
1872,-7.625,-3.8125,1.625,-0.02001953,1.022461,-0.09375,0.2075195,-0.4389648,0.03466797
1874,-7.6875,-3.4375,1.1875,-0.01220703,1.010742,-0.08984375,0.2075195,-0.4389648,0.03466797
1875,-7.375,-2.5625,0.5,-0.00390625,0.9833984,-0.078125,0.2075195,-0.4389648,0.03466797
1877,-7.25,-1.1875,0.3125,-0.03173828,1.010742,-0.078125,0.2075195,-0.4389648,0.03466797
1878,-7.1875,0.25,0.4375,-0.02001953,0.9912109,-0.09375,0.2075195,-0.4389648,0.03466797
1880,-7.125,0.875,0.3125,-0.01611328,0.9951172,-0.09375,0.2075195,-0.4389648,0.03466797
1881,-6.9375,0.6875,0,-0.02001953,1.006836,-0.1054688,0.2050781,-0.4365234,0.03466797
1883,-6.75,-0.0625,0.125,-0.0078125,1.010742,-0.1088867,0.2050781,-0.4365234,0.03466797
1884,-7.125,-0.25,-0.125,-0.0078125,0.9755859,-0.08203125,0.2050781,-0.4365234,0.03466797
1886,-7.4375,-0.6875,-0.1875,-0.02392578,0.9951172,-0.0859375,0.2099609,-0.4316406,0.02441406
1887,-7.625,-0.5625,-0.1875,-0.00390625,0.9912109,-0.1054688,0.2099609,-0.4316406,0.02441406
1889,-7.5,-0.125,-0.375,-0.00390625,0.9912109,-0.09375,0.2099609,-0.4316406,0.02441406
1890,-6.3125,0.5625,-0.25,-0.02001953,0.9716797,-0.08203125,0.2099609,-0.4316406,0.02441406
1892,-5,1.1875,-0.4375,-0.01611328,1.010742,-0.0703125,0.2075195,-0.4414063,0.02197266
1893,-3.75,2.625,-0.375,-0.00390625,0.9873047,-0.07421875,0.2075195,-0.4414063,0.02197266
1895,-2.8125,3.0625,-0.625,0.01513672,0.9833984,-0.09765625,0.2075195,-0.4414063,0.02197266
1896,-2.75,3.75,-0.6875,-0.00390625,0.9912109,-0.08203125,0.2099609,-0.4438477,0.01708984
1898,-2.1875,4.1875,-0.8125,-0.02001953,0.9990234,-0.05908203,0.2099609,-0.4438477,0.01708984
1899,-1.8125,5.5,-0.1875,0,0.9833984,-0.05517578,0.2099609,-0.4438477,0.01708984
1901,-1.75,7.125,-0.0625,-0.0078125,0.9755859,-0.04345703,0.2099609,-0.4438477,0.01708984
1902,-2.5,8.375,0.0625,0.007324219,1.00293,-0.078125,0.2099609,-0.4438477,0.01708984
1904,-2.9375,9.3125,0.375,-0.00390625,0.9990234,-0.05908203,0.2099609,-0.4438477,0.01708984
1905,-3.1875,10.375,0.375,-0.0078125,0.9951172,-0.04736328,0.2099609,-0.4438477,0.01708984
1907,-3.25,11.1875,0.3125,0.01904297,0.9873047,-0.08984375,0.2148438,-0.4462891,0.02441406
1908,-3.625,12.125,0.625,-0.01611328,0.9755859,-0.0703125,0.2148438,-0.4462891,0.02441406
1910,-3.125,12.375,0.8125,-0.01611328,0.9677734,-0.0703125,0.2148438,-0.4462891,0.02441406
1911,-2.1875,12,1.125,-0.02001953,0.9794922,-0.08984375,0.2099609,-0.4414063,0.02441406
1913,-1.5,10.9375,1.25,-0.01220703,0.9755859,-0.08984375,0.2099609,-0.4414063,0.02441406
1914,-0.875,9.5625,1.5,0.003417969,0.9833984,-0.1054688,0.2099609,-0.4414063,0.02441406
1916,-0.8125,7.8125,1.4375,-0.02001953,0.9912109,-0.112793,0.2099609,-0.4414063,0.02441406
1917,-1.9375,6.25,1.0625,-0.02001953,0.9794922,-0.1166992,0.2075195,-0.4287109,0.02734375
1919,-2.625,4.4375,1.125,-0.01220703,1.010742,-0.1206055,0.2075195,-0.4287109,0.02734375
1920,-3.125,2.875,0.8125,-0.02001953,1.014648,-0.112793,0.2075195,-0.4287109,0.02734375
1922,-3.1875,1.6875,1.25,-0.03173828,1.006836,-0.112793,0.2050781,-0.4438477,0.02197266
1923,-2.6875,0.875,1.4375,-0.02783203,0.9794922,-0.078125,0.2050781,-0.4438477,0.02197266
1925,-2.4375,0.6875,1.125,-0.02783203,0.9794922,-0.08203125,0.2050781,-0.4438477,0.02197266
1926,-1.9375,0.8125,0.625,-0.07519531,1.00293,-0.09375,0.2124023,-0.4365234,0.03222656
1928,-1.8125,0.5,0.4375,-0.02783203,1.010742,-0.0859375,0.2124023,-0.4365234,0.03222656
1929,-1.9375,-0.1875,0,-0.01611328,0.9833984,-0.1054688,0.2124023,-0.4365234,0.03222656
1931,-1.75,-0.9375,-0.6875,-0.01220703,1.00293,-0.1088867,0.2124023,-0.4365234,0.03222656
1932,-1.6875,-1.4375,-1.0625,-0.02783203,1.00293,-0.1015625,0.2148438,-0.4365234,0.03466797
1934,-1.125,-2.1875,-1.4375,-0.01611328,1.022461,-0.112793,0.2148438,-0.4365234,0.03466797
1935,-1.125,-3.25,-1.5625,0.003417969,1.014648,-0.1206055,0.2148438,-0.4365234,0.03466797
1937,-1.5625,-3.9375,-1.8125,-0.02001953,0.9990234,-0.08984375,0.2050781,-0.4389648,0.02734375
1938,-1.4375,-4.625,-1.25,-0.01220703,1.022461,-0.09765625,0.2050781,-0.4389648,0.02734375
1940,-1.6875,-5.25,-1.0625,0.003417969,1.022461,-0.1088867,0.2050781,-0.4389648,0.02734375
1941,-2.125,-5.375,-0.875,-0.02783203,1.006836,-0.1054688,0.2050781,-0.4389648,0.02734375
1943,-2.0625,-4.5,-0.375,-0.02001953,1.00293,-0.08203125,0.2050781,-0.4389648,0.02734375
1944,-1.4375,-3.3125,0.125,-0.0078125,0.9873047,-0.05908203,0.2050781,-0.4389648,0.02734375
1946,-0.5,-1.9375,0.0625,-0.02001953,0.9873047,-0.06689453,0.2050781,-0.4389648,0.02734375
1947,0.0625,0,0.125,-0.00390625,0.9951172,-0.0703125,0.2050781,-0.4316406,0.03222656
1949,0.0625,1.25,0.25,-0.02001953,0.9951172,-0.1015625,0.2050781,-0.4316406,0.03222656
1950,-0.3125,2.3125,0.125,0,0.9990234,-0.078125,0.2050781,-0.4316406,0.03222656
1952,-1.1875,3.5625,0.125,-0.02783203,1.018555,-0.0859375,0.2050781,-0.4262695,0.02197266
1953,-2.1875,4.5,0,-0.02783203,1.018555,-0.0859375,0.2050781,-0.4262695,0.02197266
1955,-2.6875,5.5,0.3125,-0.01611328,0.9990234,-0.06689453,0.2050781,-0.4262695,0.02197266
1956,-2.375,6.375,0.1875,0,0.9912109,-0.08203125,0.2050781,-0.4262695,0.02197266
1958,-2.25,6.875,0.375,0.007324219,0.9951172,-0.0859375,0.2148438,-0.4287109,0.01708984
1960,-2.0625,7.3125,0.375,-0.0078125,0.9638672,-0.08203125,0.2148438,-0.4287109,0.01708984
1962,-1.6875,7.6875,0.3125,-0.01220703,0.9873047,-0.08203125,0.2148438,-0.4287109,0.01708984
1963,-1.75,8.5625,0.4375,0.003417969,0.9873047,-0.078125,0.2250977,-0.4365234,0.02197266
1965,-2.125,9.1875,0.5625,0.003417969,0.9951172,-0.05908203,0.2250977,-0.4365234,0.02197266
1966,-2.875,10.5,0.375,0,0.9951172,-0.08203125,0.2250977,-0.4365234,0.02197266
1968,-3.25,11.25,0.625,-0.0078125,0.9716797,-0.0859375,0.2250977,-0.4365234,0.02197266
1969,-3.4375,11.4375,0.5625,-0.00390625,1.00293,-0.09375,0.2250977,-0.4365234,0.02197266
1971,-3.1875,11.5,0.3125,-0.00390625,1.010742,-0.09375,0.2250977,-0.4365234,0.02197266
1972,-3.5625,11.4375,0.125,0.01123047,0.9833984,-0.078125,0.2250977,-0.4365234,0.02197266
1974,-2.75,10.8125,0,0,0.9951172,-0.1088867,0.2177734,-0.434082,0.02978516
1975,-1.8125,9.9375,0,0.01904297,0.9990234,-0.09375,0.2177734,-0.434082,0.02978516
1977,-0.6875,9.6875,-0.375,0,0.9716797,-0.08203125,0.2177734,-0.434082,0.02978516
1978,-0.125,10.25,-0.5625,0,0.9794922,-0.05908203,0.2075195,-0.434082,0.03466797
1980,0.0625,11.4375,-0.3125,-0.0078125,0.9755859,-0.07421875,0.2075195,-0.434082,0.03466797
1981,0.5625,12.3125,0.3125,0.003417969,0.9912109,-0.07421875,0.2075195,-0.434082,0.03466797
1983,0.875,12.6875,0.8125,-0.01611328,0.9716797,-0.09375,0.2075195,-0.434082,0.03466797
1984,1.5,12.0625,0.875,-0.00390625,0.9990234,-0.09375,0.2099609,-0.4536133,0.01953125
1986,2.4375,10.875,0.8125,0.003417969,0.9912109,-0.1054688,0.2099609,-0.4536133,0.01953125
1987,2.875,9.4375,0.9375,-0.01611328,1.006836,-0.1088867,0.2099609,-0.4536133,0.01953125
1989,2.625,8.4375,1.5625,-0.0078125,0.9990234,-0.1088867,0.2124023,-0.434082,0.01953125
1990,2.375,6.875,2,-0.01611328,0.9951172,-0.1054688,0.2124023,-0.434082,0.01953125
1992,2.4375,4.75,2.1875,-0.01611328,0.9873047,-0.1054688,0.2124023,-0.434082,0.01953125
1993,1.6875,2.4375,2.25,0.01904297,0.9912109,-0.128418,0.2075195,-0.4365234,0.04003906
1995,0.5625,0.6875,2,0.007324219,0.9912109,-0.09765625,0.2075195,-0.4365234,0.04003906
1996,0.375,0,2,-0.00390625,1.014648,-0.078125,0.2075195,-0.4365234,0.04003906
1998,0.875,-0.1875,2.6875,-0.01611328,0.9794922,-0.05517578,0.2075195,-0.4365234,0.04003906
1999,1,-0.0625,2.875,-0.01220703,0.9833984,-0.07421875,0.2050781,-0.4487305,0.01708984
2001,0.625,0.375,2.6875,0,0.9794922,-0.078125,0.2050781,-0.4487305,0.01708984
2002,-0.1875,1.125,2.9375,0.003417969,0.9833984,-0.078125,0.2050781,-0.4487305,0.01708984
2004,-1.1875,1.6875,2.9375,0.01904297,0.9873047,-0.0859375,0.2075195,-0.4511719,0.01953125
2005,-1.9375,1.8125,3.25,0.003417969,0.9794922,-0.07421875,0.2075195,-0.4511719,0.01953125
2007,-2.625,2.0625,3,-0.01611328,1.010742,-0.09375,0.2075195,-0.4511719,0.01953125
2008,-3.5,1.4375,2.8125,0.01904297,1.022461,-0.0859375,0.2075195,-0.4511719,0.01953125
2010,-4,1.1875,3,-0.01220703,1.010742,-0.09375,0.2075195,-0.4511719,0.01953125
2011,-4.375,0.1875,2.6875,0.003417969,1.00293,-0.09375,0.2075195,-0.4511719,0.01953125
2013,-4.25,0.125,2.4375,0.01904297,1.022461,-0.08984375,0.2075195,-0.4511719,0.01953125
2014,-3.6875,-0.25,2,0,1.006836,-0.09375,0.2075195,-0.4287109,0.02734375
2016,-3.625,-0.1875,1.25,0,0.9990234,-0.08984375,0.2075195,-0.4287109,0.02734375
2017,-3.25,-0.375,0.875,0.02685547,0.9833984,-0.08984375,0.2075195,-0.4287109,0.02734375
2019,-3.125,-0.5625,0.8125,0.007324219,0.9755859,-0.08203125,0.2099609,-0.4462891,0.02978516
2020,-2.25,-1,0.75,0,0.9873047,-0.07421875,0.2099609,-0.4462891,0.02978516
2022,-1.25,-1.3125,0.9375,0.003417969,0.9755859,-0.078125,0.2099609,-0.4462891,0.02978516
2023,-1.125,-1.75,0.6875,-0.00390625,0.9951172,-0.09765625,0.2099609,-0.4462891,0.02978516
2025,-1.625,-2.125,0.1875,0.007324219,0.9873047,-0.1088867,0.2050781,-0.4438477,0.01953125
2026,-2.0625,-2.6875,-0.4375,0.01904297,0.9951172,-0.07421875,0.2050781,-0.4438477,0.01953125
2028,-2.9375,-2.875,-0.6875,-0.01611328,1.026367,-0.1015625,0.2050781,-0.4438477,0.01953125
2029,-3.1875,-3.125,-0.9375,0.01904297,1.022461,-0.08203125,0.2099609,-0.4389648,0.02197266
2031,-3.5,-3.375,-1.0625,-0.01611328,1.00293,-0.09375,0.2099609,-0.4389648,0.02197266
2032,-3.375,-3.125,-1.25,0,0.9912109,-0.08984375,0.2099609,-0.4389648,0.02197266
2034,-3.3125,-3.125,-1.25,-0.02001953,1.010742,-0.07421875,0.1972656,-0.4365234,0.02978516
2035,-2.3125,-2.75,-1.1875,-0.01611328,1.00293,-0.08984375,0.1972656,-0.4365234,0.02978516
2037,-1.875,-2.625,-0.8125,-0.01611328,0.9873047,-0.08203125,0.1972656,-0.4365234,0.02978516
2038,-1.25,-2.1875,-0.1875,-0.02001953,0.9794922,-0.08984375,0.1972656,-0.4365234,0.02978516
2040,-1,-2.6875,0.1875,-0.00390625,0.9951172,-0.0859375,0.2099609,-0.4365234,0.02978516
2041,-0.5625,-2.4375,0.875,-0.01611328,1.010742,-0.0859375,0.2099609,-0.4365234,0.02978516
2043,0,-2.625,1.625,-0.02392578,0.9912109,-0.08984375,0.2099609,-0.4365234,0.02978516
2044,1.125,-2.375,1.75,-0.00390625,0.9912109,-0.06298828,0.2050781,-0.4389648,0.02441406
2046,1.375,-1.6875,2,-0.0078125,0.9951172,-0.06298828,0.2050781,-0.4389648,0.02441406
2047,1.4375,-1.4375,1.875,-0.0078125,0.9912109,-0.06298828,0.2050781,-0.4389648,0.02441406
2049,1.125,-1,1.75,0.003417969,0.9990234,-0.06689453,0.2050781,-0.4389648,0.02441406
2050,0.3125,-1.3125,1.3125,0.003417969,0.9990234,-0.078125,0.2075195,-0.4414063,0.02197266
2052,-0.375,-1.0625,1.375,0.003417969,0.9951172,-0.08203125,0.2075195,-0.4414063,0.02197266
2053,-1.1875,-1.0625,1.5,-0.01611328,0.9755859,-0.07421875,0.2075195,-0.4414063,0.02197266
2055,-1.625,-1.1875,1.1875,0.01123047,1.00293,-0.08203125,0.2148438,-0.434082,0.02441406
2058,-1.0625,-1.4375,0.75,0.01904297,0.9873047,-0.08984375,0.2148438,-0.434082,0.02441406
2060,-0.75,-1.6875,0.5625,0,1.010742,-0.078125,0.2148438,-0.434082,0.02441406
2061,-0.375,-1.3125,0.125,0.01904297,1.018555,-0.08984375,0.2050781,-0.4414063,0.02197266
2063,-0.9375,-1.4375,0.125,0,1.014648,-0.0703125,0.2050781,-0.4414063,0.02197266
2064,-1.5625,-1.25,0.1875,-0.01611328,1.010742,-0.06298828,0.2050781,-0.4414063,0.02197266
2066,-1.375,-0.6875,0,0.003417969,0.9912109,-0.06689453,0.2050781,-0.4414063,0.02197266
2067,-1.25,-0.25,0,-0.00390625,1.018555,-0.0859375,0.2075195,-0.4389648,0.02734375
2069,-0.9375,0.25,-0.5625,0,0.9794922,-0.0703125,0.2075195,-0.4389648,0.02734375
2070,-1.5625,0.9375,-1,-0.01220703,0.9755859,-0.078125,0.2075195,-0.4389648,0.02734375
2072,-1.9375,2.0625,-0.9375,-0.00390625,0.9833984,-0.0703125,0.2099609,-0.4462891,0.02441406
2073,-2.6875,2.8125,-1.0625,-0.02392578,1.00293,-0.05908203,0.2099609,-0.4462891,0.02441406
2075,-2.8125,3.375,-0.875,-0.02783203,0.9873047,-0.08203125,0.2099609,-0.4462891,0.02441406
2076,-2.6875,3.5625,-0.5625,-0.00390625,0.9951172,-0.07421875,0.2099609,-0.4462891,0.02441406
2078,-2.4375,4,-0.8125,-0.0078125,0.9990234,-0.078125,0.2099609,-0.4462891,0.02441406
2079,-2,4.1875,-0.5625,-0.01220703,0.9716797,-0.08203125,0.2099609,-0.4462891,0.02441406
2081,-1.625,4,-0.3125,-0.0078125,0.9912109,-0.0859375,0.2099609,-0.4462891,0.02441406
2082,-1.5625,3.4375,0.0625,-0.0078125,0.9599609,-0.08203125,0.2099609,-0.434082,0.01953125
2084,-1.8125,3.25,0.375,-0.00390625,0.9912109,-0.078125,0.2099609,-0.434082,0.01953125
2085,-2,2.75,0.625,0.003417969,1.010742,-0.09375,0.2099609,-0.434082,0.01953125
2087,-3.25,1.875,1,0.003417969,0.9833984,-0.078125,0.2050781,-0.4414063,0.02197266
2088,-4.25,1.375,1.3125,0.01904297,1.026367,-0.0859375,0.2050781,-0.4414063,0.02197266
2090,-4.0625,0.75,1.0625,-0.01611328,0.9873047,-0.09375,0.2050781,-0.4414063,0.02197266
2091,-3.5,-0.375,1.5,0.01123047,0.9912109,-0.08203125,0.2050781,-0.4414063,0.02197266
2093,-2.5,-1.1875,1.1875,-0.02392578,0.9951172,-0.09375,0.2124023,-0.4316406,0.02441406
2094,-1.5,-1.9375,1.125,-0.02001953,0.9873047,-0.0859375,0.2124023,-0.4316406,0.02441406
2096,-0.8125,-2.875,1.75,-0.01611328,0.9833984,-0.08203125,0.2124023,-0.4316406,0.02441406
2097,-0.3125,-3.125,1.0625,0.01123047,0.9990234,-0.0859375,0.2099609,-0.4414063,0.03222656
2099,-0.375,-3.125,1.0625,-0.00390625,1.022461,-0.08984375,0.2099609,-0.4414063,0.03222656
2100,-0.8125,-3.4375,1.0625,0,1.018555,-0.08984375,0.2099609,-0.4414063,0.03222656
2102,-1.4375,-3.5625,0.75,0.003417969,1.014648,-0.09375,0.2099609,-0.4365234,0.02734375
2103,-2.25,-4.1875,0.5,0.007324219,1.010742,-0.08984375,0.2099609,-0.4365234,0.02734375
2105,-2.1875,-4.5,0.25,-0.00390625,0.9912109,-0.09765625,0.2099609,-0.4365234,0.02734375
2106,-2.4375,-5.0625,0.25,0,0.9912109,-0.09375,0.2099609,-0.4365234,0.02734375
2108,-1.5625,-5.375,0.25,-0.0078125,1.00293,-0.05517578,0.199707,-0.4462891,0.03222656
2109,-1.1875,-5.0625,0.375,-0.01220703,0.9833984,-0.06689453,0.199707,-0.4462891,0.03222656
2111,-0.8125,-5.125,0.375,0.003417969,1.018555,-0.08203125,0.199707,-0.4462891,0.03222656
2112,-0.875,-4.875,0.4375,-0.00390625,1.018555,-0.08203125,0.2099609,-0.4389648,0.01708984
2114,-1.0625,-4.4375,0.5,0,1.010742,-0.06298828,0.2099609,-0.4389648,0.01708984
2115,-1.1875,-3.25,0.5625,0.007324219,1.010742,-0.07421875,0.2099609,-0.4389648,0.01708984
2117,-1.5625,-1.9375,0.5,0.02685547,1.018555,-0.05517578,0.2099609,-0.4389648,0.01708984
2118,-2.125,-0.4375,0.5,-0.0078125,1.026367,-0.03564453,0.2099609,-0.4389648,0.01708984
2120,-2.5625,1.1875,0.5,-0.00390625,0.9912109,-0.05908203,0.2099609,-0.4389648,0.01708984
2121,-3.375,2.375,0.125,0,0.9873047,-0.0703125,0.2099609,-0.4389648,0.01708984
2123,-3.6875,2.9375,0.125,-0.02392578,1.010742,-0.06298828,0.199707,-0.4316406,0.01953125
2124,-3.75,3.0625,0.0625,-0.00390625,1.018555,-0.08203125,0.199707,-0.4316406,0.01953125
2126,-3.75,2.9375,0,-0.02392578,0.9873047,-0.05517578,0.199707,-0.4316406,0.01953125
2127,-3.5,2.625,-0.125,0,1.00293,-0.0859375,0.2075195,-0.434082,0.01464844
2129,-3.375,1.8125,0,0.003417969,1.00293,-0.09765625,0.2075195,-0.434082,0.01464844
2130,-3.125,1.0625,0.3125,-0.0078125,0.9912109,-0.1015625,0.2075195,-0.434082,0.01464844
2132,-2.8125,-0.0625,0.5,0.003417969,1.010742,-0.08203125,0.2075195,-0.434082,0.01464844
2133,-1.8125,-1.0625,0.5625,0.01904297,1.026367,-0.1015625,0.2099609,-0.4389648,0.02197266
2135,-1.625,-1.875,0.4375,-0.0078125,0.9912109,-0.09375,0.2099609,-0.4389648,0.02197266
2136,-0.9375,-2.25,0.75,-0.01611328,1.010742,-0.09375,0.2099609,-0.4389648,0.02197266
2138,-0.75,-2.6875,0.8125,0.01123047,0.9833984,-0.0859375,0.2124023,-0.4287109,0.02197266
2139,-0.4375,-2.8125,0.75,-0.01220703,1.010742,-0.0703125,0.2124023,-0.4287109,0.02197266
2141,-0.1875,-2.75,0.5625,-0.0078125,1.010742,-0.06689453,0.2124023,-0.4287109,0.02197266
2142,-0.5625,-2.6875,0.4375,-0.0078125,1.010742,-0.05517578,0.2124023,-0.4287109,0.02197266
2144,-0.625,-2.5,0.375,0.01904297,0.9951172,-0.06298828,0.2124023,-0.4287109,0.02197266
2145,-1,-2.3125,0,0.01904297,1.018555,-0.07421875,0.2124023,-0.4287109,0.02197266
2147,-1.875,-2.8125,-0.125,-0.01220703,0.9990234,-0.09765625,0.2124023,-0.4287109,0.02197266
2148,-2.875,-3.6875,-0.375,-0.01220703,1.014648,-0.09375,0.2099609,-0.4511719,0.01708984
2150,-3.4375,-4.1875,-0.375,-0.0078125,0.9951172,-0.08984375,0.2099609,-0.4511719,0.01708984
2151,-3.25,-4.4375,0.125,0.003417969,0.9951172,-0.0859375,0.2099609,-0.4511719,0.01708984
2153,-3.25,-5.0625,0.0625,-0.0078125,1.006836,-0.06298828,0.1948242,-0.4462891,0.02978516
2155,-2.75,-4.9375,0.25,-0.02001953,0.9833984,-0.05126953,0.1948242,-0.4462891,0.02978516
2157,-2.5,-5,0.6875,-0.01220703,0.9873047,-0.0703125,0.1948242,-0.4462891,0.02978516
2158,-1.875,-5.125,0.9375,-0.0078125,0.9833984,-0.06298828,0.1948242,-0.4462891,0.02978516
2160,-1.5,-5.875,0.6875,-0.01220703,0.9873047,-0.08984375,0.2075195,-0.4462891,0.02197266
2161,-1.25,-6.5625,0.75,-0.01611328,1.014648,-0.06298828,0.2075195,-0.4462891,0.02197266
2163,-1.3125,-6.6875,0.75,-0.01611328,1.014648,-0.06298828,0.2075195,-0.4462891,0.02197266
2164,-1.4375,-5.875,0.5625,0.007324219,1.010742,-0.07421875,0.2099609,-0.434082,0.01708984
2166,-1.25,-5.3125,0.75,-0.02001953,1.014648,-0.06689453,0.2099609,-0.434082,0.01708984
2167,-1.9375,-4.8125,0.75,-0.00390625,1.010742,-0.0703125,0.2099609,-0.434082,0.01708984
2169,-2.375,-4.25,0.625,0.007324219,0.9990234,-0.09765625,0.2021484,-0.4365234,0.02197266
2170,-2.625,-3.5,1.0625,0.007324219,0.9912109,-0.06298828,0.2021484,-0.4365234,0.02197266
2172,-2.6875,-3.0625,1.25,0.01513672,0.9951172,-0.06689453,0.2021484,-0.4365234,0.02197266
2173,-2.625,-2.375,1.25,0.007324219,0.9794922,-0.06298828,0.2021484,-0.4365234,0.02197266
2175,-2.4375,-2,1.4375,-0.00390625,0.9951172,-0.09375,0.2099609,-0.434082,0.02441406
2176,-3,-1.75,1.625,0.02294922,0.9912109,-0.07421875,0.2099609,-0.434082,0.02441406
2178,-3.3125,-1.8125,1.5625,0.01513672,0.9794922,-0.0859375,0.2099609,-0.434082,0.02441406
2179,-3.1875,-2.125,1.8125,0.01904297,0.9833984,-0.078125,0.2075195,-0.4389648,0.01171875
2181,-3.1875,-2.75,1.875,0.02294922,1.010742,-0.07421875,0.2075195,-0.4389648,0.01171875
2182,-3.25,-2.8125,1.9375,0.01513672,0.9912109,-0.05908203,0.2075195,-0.4389648,0.01171875
2184,-3.1875,-2.5,2.1875,0.02294922,1.014648,-0.06689453,0.2075195,-0.4389648,0.01171875
