Packet Number,Gyroscope X (deg/s),Gyroscope Y (deg/s),Gyroscope Z (deg/s),Accelerometer X (g),Accelerometer Y (g),Accelerometer Z (g),Magnetometer X (G),Magnetometer Y (G),Magnetometer Z (G)
113,-3.3125,-2.125,2.125,-0.009277344,-0.0009765625,1.006836,0.2480469,0.01074219,-0.5117188
117,-3.3125,-2.125,2.125,-0.009277344,-0.0009765625,1.006836,0.2480469,0.01074219,-0.5117188
118,-2.25,-0.875,2.375,-0.005371094,0.01025391,1.026367,0.2480469,0.01074219,-0.5117188
122,-2.1875,-0.1875,2.1875,-0.02539063,0.03027344,1.00293,0.2583008,0.003417969,-0.5219727
123,-2.4375,0.625,1.1875,0.001953125,0.02636719,1.006836,0.2583008,0.003417969,-0.5219727
127,-2.5625,1.25,0.625,-0.01708984,0.02636719,1.026367,0.2583008,0.003417969,-0.5219727
128,-2.0625,1.9375,-0.125,-0.02099609,0.03417969,1.03418,0.2583008,0.003417969,-0.5219727
132,-1.3125,2.8125,-0.4375,-0.01708984,0.03417969,1.026367,0.2583008,0.003417969,-0.5219727
133,0.1875,3.25,-0.625,-0.02539063,0.03857422,1.014648,0.2583008,0.003417969,-0.5219727
137,1.5,3.9375,-0.75,-0.01708984,0.01855469,1.026367,0.2583008,0.003417969,-0.5219727
138,2.5,4.625,-1,-0.01708984,0.01855469,1.026367,0.2607422,0.0004882813,-0.5092773
142,3.6875,5,-1.1875,-0.001464844,0.01855469,1.030273,0.2607422,0.0004882813,-0.5092773
143,4.625,5.3125,-1.75,-0.009277344,0.02246094,1.010742,0.2607422,0.0004882813,-0.5092773
147,4.5625,5.4375,-1.6875,-0.01318359,0.01855469,0.9990234,0.2583008,0.003417969,-0.5141602
148,3.875,5.1875,-1.125,-0.02539063,0.006347656,0.9951172,0.2583008,0.003417969,-0.5141602
152,2.3125,4.75,-0.375,-0.03710938,-0.009277344,0.9750977,0.2583008,0.003417969,-0.5141602
153,1.0625,4.125,-0.3125,-0.001464844,-0.009277344,0.9873047,0.2583008,0.003417969,-0.5141602
157,0.625,3.875,0,-0.02099609,-0.005371094,0.9711914,0.2558594,-0.00390625,-0.5141602
158,0.625,2.9375,0.625,0.001953125,-0.009277344,0.9873047,0.2558594,-0.00390625,-0.5141602
162,0.375,2,0.8125,0.005859375,-0.01708984,0.9711914,0.2558594,-0.00390625,-0.5141602
163,0.125,1.0625,1.0625,-0.009277344,-0.0009765625,0.9790039,0.2583008,0.003417969,-0.5117188
167,-0.1875,0.375,1.0625,-0.02539063,0.002441406,0.9750977,0.2583008,0.003417969,-0.5117188
168,0,-0.5,1.25,-0.02539063,0.002441406,1.00293,0.2583008,0.003417969,-0.5117188
172,0.625,-1.5625,1.5625,-0.01318359,-0.0009765625,0.9873047,0.2661133,0.005859375,-0.5141602
173,1.5625,-2.1875,1.5625,-0.03320313,0.002441406,0.9750977,0.2661133,0.005859375,-0.5141602
177,2.3125,-2.3125,1.625,-0.02099609,-0.02099609,1.00293,0.2661133,0.005859375,-0.5141602
178,2.625,-2.125,1.375,-0.02539063,-0.02490234,0.9833984,0.2661133,0.005859375,-0.5141602
182,2.1875,-2.125,0.9375,-0.02929688,-0.005371094,0.9790039,0.2558594,-0.00390625,-0.5039063
183,1.9375,-1.5625,0.875,-0.04101563,-0.009277344,0.9951172,0.2558594,-0.00390625,-0.5039063
187,2.1875,-1.625,0.8125,-0.01708984,-0.02929688,0.9990234,0.2558594,-0.00390625,-0.5039063
188,1.6875,-0.8125,0.9375,-0.04101563,-0.02490234,0.9833984,0.2607422,0.003417969,-0.5092773
192,1.125,-0.5,1,-0.03320313,0.02246094,1.010742,0.2607422,0.003417969,-0.5092773
193,0.5,-0.3125,0.5625,-0.03710938,-0.009277344,0.9790039,0.2607422,0.003417969,-0.5092773
197,0.125,-0.1875,0.6875,0.2006836,-0.01318359,1.010742,0.2709961,-0.001464844,-0.5141602
198,0.3125,0,0.375,-0.04101563,-0.0009765625,0.9951172,0.2709961,-0.001464844,-0.5141602
202,0.0625,0.4375,0.1875,-0.04101563,0.006347656,0.9951172,0.2709961,-0.001464844,-0.5141602
203,0.625,1.0625,0,-0.02099609,0.01855469,1.026367,0.2709961,-0.001464844,-0.5141602
207,0.8125,0.9375,-0.1875,-0.02099609,0.01025391,1.018555,0.2583008,0.005859375,-0.5141602
208,1.25,1.1875,0,-0.01708984,-0.005371094,1.00293,0.2583008,0.005859375,-0.5141602
212,2,1.0625,-0.0625,-0.02539063,0.01025391,1.010742,0.2583008,0.005859375,-0.5141602
213,2.25,0.9375,0.1875,-0.03710938,-0.005371094,1.010742,0.2607422,0.005859375,-0.5092773
217,2.875,0.1875,0.1875,-0.009277344,0.01025391,1.014648,0.2607422,0.005859375,-0.5092773
218,3.3125,0.1875,0.375,-0.02099609,0.01025391,0.9990234,0.2607422,0.005859375,-0.5092773
222,2.875,0.0625,0.3125,-0.01318359,0.002441406,1.006836,0.2607422,0.005859375,-0.5092773
223,2.4375,0.5,0.3125,-0.04882813,-0.0009765625,0.9990234,0.2607422,0.005859375,-0.5092773
227,2.125,0.5625,0.25,-0.02099609,0.002441406,0.9990234,0.2607422,0.005859375,-0.5092773
228,1.875,0.625,0.25,-0.03710938,0.02246094,0.9990234,0.2607422,0.005859375,-0.5092773
232,2.4375,0.125,0.5,-0.03320313,0.01416016,1.010742,0.2739258,0.0004882813,-0.5092773
233,2.8125,-0.3125,1.0625,-0.005371094,-0.005371094,0.9912109,0.2739258,0.0004882813,-0.5092773
237,2.625,-0.5,1.0625,-0.01318359,0.006347656,0.9594727,0.2739258,0.0004882813,-0.5092773
238,1.9375,-0.875,1.25,-0.02539063,0.01025391,0.9873047,0.2607422,0.003417969,-0.5170898
242,1.6875,-0.625,1.3125,-0.005371094,-0.005371094,1.014648,0.2607422,0.003417969,-0.5170898
243,2.1875,0.0625,1.5625,-0.005371094,0.01025391,0.9912109,0.2607422,0.003417969,-0.5170898
247,2.625,0,1.5625,-0.01318359,-0.005371094,1.006836,0.2607422,0.003417969,-0.5170898
248,2.875,0.0625,1.5625,0.01416016,-0.005371094,1.026367,0.2583008,0.005859375,-0.5092773
252,2.9375,0,0.9375,0.001953125,-0.005371094,1.022461,0.2583008,0.005859375,-0.5092773
253,2.0625,0,0.9375,-0.02929688,0.006347656,1.010742,0.2583008,0.005859375,-0.5092773
257,1,0,1,-0.01318359,0.01855469,1.006836,0.2661133,0.003417969,-0.5092773
258,0.3125,0,1,-0.02539063,-0.0009765625,1.006836,0.2661133,0.003417969,-0.5092773
262,0.0625,-0.3125,1,-0.001464844,0.006347656,1.00293,0.2661133,0.003417969,-0.5092773
263,0,-0.75,0.9375,-0.02539063,-0.009277344,0.9951172,0.2607422,0.008300781,-0.5117188
267,0,-1.125,0.75,-0.02539063,-0.005371094,1.010742,0.2607422,0.008300781,-0.5117188
268,0.1875,-1.0625,0.625,-0.02539063,0.01025391,1.00293,0.2607422,0.008300781,-0.5117188
272,0.5625,-1,0.9375,-0.03320313,-0.009277344,0.9990234,0.2607422,0.008300781,-0.5117188
274,0.875,-0.4375,0.625,-0.04882813,-0.009277344,0.9873047,0.2529297,0.0004882813,-0.5039063
278,1.5,-0.3125,0.75,-0.02539063,0.002441406,1.006836,0.2529297,0.0004882813,-0.5039063
279,1.9375,-0.25,0.8125,-0.02929688,0.02246094,1.014648,0.2529297,0.0004882813,-0.5039063
283,1.8125,0.125,0.6875,-0.02539063,0.002441406,1.010742,0.2607422,0.0004882813,-0.5141602
284,1.5,0.9375,0.5625,-0.03710938,0.01416016,1.014648,0.2607422,0.0004882813,-0.5141602
288,0.4375,1.375,0.8125,-0.03320313,0.006347656,0.9912109,0.2607422,0.0004882813,-0.5141602
289,0,2.125,0.5625,-0.02539063,0.02246094,1.026367,0.2636719,0.005859375,-0.5039063
293,-0.125,2.4375,0.4375,-0.02539063,0.006347656,1.010742,0.2636719,0.005859375,-0.5039063
294,0.4375,2.375,0.1875,-0.009277344,0.02246094,0.9990234,0.2636719,0.005859375,-0.5039063
298,0.625,2.5,0.1875,-0.02929688,0.02246094,1.018555,0.2636719,0.005859375,-0.5039063
299,0.5625,3,-0.25,-0.04492188,0.02246094,1.014648,0.2636719,-0.001464844,-0.5092773
303,0.0625,3.1875,-0.125,-0.04492188,-0.0009765625,0.9951172,0.2636719,-0.001464844,-0.5092773
304,-0.625,3.375,0,-0.03320313,0.02636719,1.00293,0.2636719,-0.001464844,-0.5092773
308,0,3.5,0,-0.03710938,0.01025391,0.9990234,0.2607422,-0.001464844,-0.5092773
309,0.375,2.9375,0.375,-0.009277344,0.01025391,0.9912109,0.2607422,-0.001464844,-0.5092773
313,1.625,2.25,0.625,-0.03710938,0.01416016,0.9750977,0.2607422,-0.001464844,-0.5092773
314,3.125,1.75,0.9375,-0.01318359,0.01855469,0.9750977,0.2607422,-0.001464844,-0.5092773
318,4,0.9375,1.0625,-0.02929688,0.01025391,0.9951172,0.2607422,-0.001464844,-0.5092773
319,3.75,0.1875,1.5,-0.02539063,-0.009277344,0.9750977,0.2607422,-0.001464844,-0.5092773
323,3.125,-0.25,1.125,-0.01318359,-0.005371094,1.00293,0.2607422,-0.001464844,-0.5092773
324,2.875,-0.3125,1.375,-0.02099609,-0.005371094,0.9912109,0.2636719,0.003417969,-0.5039063
328,3.5,-0.375,1.3125,-0.01708984,0.01416016,0.9912109,0.2636719,0.003417969,-0.5039063
329,4.1875,-0.5,1.3125,-0.03710938,0.006347656,0.9912109,0.2636719,0.003417969,-0.5039063
333,4.4375,-0.8125,1,-0.02539063,0.01416016,0.9750977,0.2583008,0.0004882813,-0.5092773
334,4.1875,-0.5,0.6875,-0.005371094,0.01855469,0.9873047,0.2583008,0.0004882813,-0.5092773
338,3.5625,-0.125,1,-0.04101563,0.002441406,0.9951172,0.2583008,0.0004882813,-0.5092773
339,2.125,0.25,0.8125,-0.01708984,0.01855469,1.010742,0.2583008,0.0004882813,-0.5092773
343,0.5,0.1875,1.0625,-0.02099609,0.002441406,0.9750977,0.2583008,0.0004882813,-0.5092773
344,-1.1875,0.0625,1.375,-0.02539063,0.002441406,0.9750977,0.2583008,0.0004882813,-0.5092773
348,-2.875,-0.375,0.9375,-0.02099609,0.006347656,0.9833984,0.2583008,0.0004882813,-0.5092773
349,-3.375,-1.0625,0.5625,-0.02539063,0.006347656,0.9672852,0.2558594,0.0004882813,-0.5063477
353,-3.5,-0.875,0.625,-0.03320313,0.002441406,0.9990234,0.2558594,0.0004882813,-0.5063477
354,-2.5625,-1.3125,1.0625,-0.03710938,0.01025391,0.9951172,0.2558594,0.0004882813,-0.5063477
358,-1.3125,-1.4375,1,-0.02099609,0.01025391,1.006836,0.2636719,-0.001464844,-0.5063477
359,-0.1875,-1.6875,1.375,-0.04882813,0.006347656,1.00293,0.2636719,-0.001464844,-0.5063477
363,-0.1875,-2.1875,1.375,-0.005371094,0.002441406,0.9873047,0.2636719,-0.001464844,-0.5063477
364,-0.75,-2.5625,1.75,-0.01318359,0.01025391,0.9750977,0.2636719,-0.001464844,-0.5063477
368,-1.3125,-2.75,1.5625,-0.01708984,-0.0009765625,0.9951172,0.2636719,-0.001464844,-0.5117188
369,-2,-2.875,1.625,-0.01708984,0.01025391,0.9873047,0.2636719,-0.001464844,-0.5117188
373,-2.3125,-2.8125,1.125,-0.04492188,0.01025391,1.006836,0.2636719,-0.001464844,-0.5117188
374,-2.375,-2.375,1.25,-0.02099609,0.01855469,1.010742,0.2583008,0.005859375,-0.5092773
378,-1.75,-2.0625,1.3125,-0.04882813,0.01025391,0.9990234,0.2583008,0.005859375,-0.5092773
379,-1.9375,-2.1875,0.9375,-0.03710938,0.02636719,0.9833984,0.2583008,0.005859375,-0.5092773
383,-1.5,-1.6875,0.75,-0.02539063,0.01025391,0.9750977,0.2607422,0.0004882813,-0.5092773
384,-0.8125,-1.375,0.875,-0.03710938,0.002441406,1.026367,0.2607422,0.0004882813,-0.5092773
388,-0.25,-0.875,0.9375,-0.01708984,-0.005371094,1.00293,0.2607422,0.0004882813,-0.5092773
389,0.0625,-0.8125,0.75,-0.02539063,0.002441406,1.014648,0.2607422,0.0004882813,-0.5092773
393,-0.1875,-0.6875,0.5625,-0.03320313,-0.005371094,0.9912109,0.2583008,-0.006347656,-0.5092773
394,-0.125,-0.5,0.25,-0.009277344,0.02636719,1.014648,0.2583008,-0.006347656,-0.5092773
398,0.1875,-0.375,0.3125,-0.02929688,0.02246094,0.9951172,0.2583008,-0.006347656,-0.5092773
399,0.0625,-0.25,0.25,-0.009277344,0.01025391,0.9912109,0.2583008,0.003417969,-0.5195313
403,-0.6875,0,0,-0.03320313,0.01855469,0.9912109,0.2583008,0.003417969,-0.5195313
404,-0.875,0.375,0.1875,-0.01318359,-0.0009765625,0.9951172,0.2583008,0.003417969,-0.5195313
408,-1.3125,1.0625,-0.0625,-0.03320313,0.01416016,0.9912109,0.2583008,0.003417969,-0.5195313
409,-1,1.75,0.1875,-0.02929688,0.02246094,1.026367,0.2583008,0.003417969,-0.5195313
413,-0.6875,1.875,0.25,-0.02099609,0.01025391,0.9912109,0.2583008,0.003417969,-0.5195313
414,-0.5625,2.125,0.5625,-0.01318359,0.03027344,0.9990234,0.2583008,0.003417969,-0.5195313
418,-0.5625,1.9375,0.625,-0.03320313,-0.0009765625,0.9951172,0.2607422,0.003417969,-0.5039063
419,-0.8125,2.125,0.8125,-0.02539063,0.006347656,0.9594727,0.2607422,0.003417969,-0.5039063
423,-1.1875,1.1875,1.8125,-0.001464844,-0.01318359,0.9990234,0.2607422,0.003417969,-0.5039063
424,-1.375,0.5,1.8125,-0.02099609,-0.0009765625,0.9873047,0.2709961,0.005859375,-0.5092773
428,-1.5,0,2.125,-0.02929688,0.006347656,0.9951172,0.2709961,0.005859375,-0.5092773
429,-1.5,-1.0625,2.25,-0.03320313,0.02246094,0.9790039,0.2709961,0.005859375,-0.5092773
433,-1.25,-1.5,2.3125,-0.02929688,-0.0009765625,0.9790039,0.2709961,0.005859375,-0.5092773
435,-1.0625,-2.375,2.375,-0.03710938,0.01025391,0.9990234,0.2709961,0.005859375,-0.5092773
439,-1.125,-2.875,2.3125,-0.04101563,0.01025391,0.9990234,0.2709961,0.005859375,-0.5092773
440,-1.375,-3.1875,2.5625,-0.02539063,0.02636719,0.9833984,0.2709961,0.005859375,-0.5092773
444,-1.25,-4.125,2.5625,-0.02539063,0.006347656,1.018555,0.2636719,0.003417969,-0.5195313
445,-1.125,-4.4375,2.3125,-0.02539063,0.002441406,0.9873047,0.2636719,0.003417969,-0.5195313
449,-0.8125,-4.75,2.0625,-0.02929688,0.006347656,0.9912109,0.2636719,0.003417969,-0.5195313
450,-0.875,-4.5,1.75,-0.005371094,-0.005371094,1.00293,0.2636719,-0.001464844,-0.5219727
454,-0.625,-4.75,1.8125,-0.02929688,0.01416016,0.9873047,0.2636719,-0.001464844,-0.5219727
455,-0.625,-4.6875,1.625,-0.02539063,0.01855469,0.9912109,0.2636719,-0.001464844,-0.5219727
459,0,-4.0625,1.375,-0.03710938,0.01855469,0.9951172,0.2636719,-0.001464844,-0.5219727
460,-0.25,-4.0625,0.5,-0.005371094,0.02246094,1.010742,0.2558594,0.005859375,-0.5117188
464,-0.8125,-3.6875,0.4375,-0.03320313,0.02636719,1.018555,0.2558594,0.005859375,-0.5117188
465,-1.8125,-3.375,0.0625,-0.02929688,-0.0009765625,0.9951172,0.2558594,0.005859375,-0.5117188
469,-2.25,-2.8125,-0.1875,-0.01708984,-0.0009765625,0.9951172,0.2529297,0.003417969,-0.5117188
470,-2.5,-2.25,-0.625,-0.02929688,0.01855469,0.9594727,0.2529297,0.003417969,-0.5117188
474,-2.1875,-1.9375,-0.6875,-0.001464844,0.01416016,0.9833984,0.2529297,0.003417969,-0.5117188
475,-2,-1.75,-0.5625,-0.02099609,0.01416016,1.00293,0.2558594,0.003417969,-0.5092773
479,-1.5,-1.6875,-0.6875,-0.04492188,0.01416016,1.00293,0.2558594,0.003417969,-0.5092773
480,-0.75,-1.3125,-0.375,-0.02929688,0.006347656,0.9951172,0.2558594,0.003417969,-0.5092773
484,-0.0625,-0.5,-0.25,-0.01708984,-0.005371094,1.010742,0.2558594,0.003417969,-0.5092773
485,0,0.125,0,-0.02929688,-0.009277344,1.014648,0.2607422,0.0004882813,-0.5117188
489,-0.1875,0.5625,-0.1875,-0.02099609,0.002441406,0.9912109,0.2607422,0.0004882813,-0.5117188
490,-0.1875,1.125,-0.0625,-0.03320313,0.01416016,1.014648,0.2607422,0.0004882813,-0.5117188
494,0,1.5,0.125,-0.01318359,0.006347656,0.9990234,0.2504883,-0.00390625,-0.5219727
495,0.75,1.6875,0.25,-0.01318359,0.02246094,0.9990234,0.2504883,-0.00390625,-0.5219727
499,1,2,0.5,-0.02099609,0.01025391,1.006836,0.2504883,-0.00390625,-0.5219727
500,1.375,2.75,0.625,-0.02539063,-0.0009765625,0.9951172,0.2504883,-0.00390625,-0.5219727
504,1.6875,2.75,0.625,-0.02929688,0.01416016,1.014648,0.2504883,-0.00390625,-0.5219727
505,2.1875,2.625,0.9375,-0.009277344,-0.0009765625,0.9990234,0.2504883,-0.00390625,-0.5219727
509,2.4375,2.1875,0.6875,-0.03320313,0.006347656,1.00293,0.2504883,-0.00390625,-0.5219727
510,2.9375,1.9375,0.6875,-0.03710938,0.01025391,1.010742,0.2583008,-0.001464844,-0.5063477
514,3.5625,1.1875,0.3125,-0.02539063,0.006347656,1.010742,0.2583008,-0.001464844,-0.5063477
515,3.6875,1.1875,0.25,-0.005371094,0.02636719,1.010742,0.2583008,-0.001464844,-0.5063477
519,3.625,1.125,-0.25,-0.02099609,-0.0009765625,0.9951172,0.2636719,-0.008789063,-0.5141602
520,3.0625,1.1875,-0.6875,-0.02539063,0.02636719,1.010742,0.2636719,-0.008789063,-0.5141602
524,2.4375,1.4375,-0.9375,-0.02099609,0.01416016,0.9951172,0.2636719,-0.008789063,-0.5141602
525,1.3125,1.375,-1.0625,-0.03320313,0.01855469,0.9912109,0.2636719,-0.008789063,-0.5141602
529,0.5,1.1875,-1.125,-0.009277344,0.01025391,0.9912109,0.2636719,-0.008789063,-0.5141602
530,0.125,0.875,-1.5,-0.03320313,-0.0009765625,0.9990234,0.2636719,-0.008789063,-0.5141602
534,0.25,0.625,-1.1875,-0.01708984,0.02246094,1.00293,0.2636719,-0.008789063,-0.5141602
535,0.125,0.375,-1.3125,-0.02929688,0.03027344,0.9912109,0.2636719,-0.008789063,-0.5117188
539,-0.25,0.3125,-1.4375,-0.02099609,0.002441406,0.9990234,0.2636719,-0.008789063,-0.5117188
540,-1.0625,0,-1.5625,-0.02929688,0.01025391,1.010742,0.2636719,-0.008789063,-0.5117188
544,-1.0625,0.0625,-1.3125,-0.01318359,0.02246094,0.9990234,0.2583008,0.003417969,-0.5141602
545,-1.125,0.125,-1.375,-0.04492188,0.03027344,1.014648,0.2583008,0.003417969,-0.5141602
549,-0.8125,-0.3125,-1.375,-0.03320313,0.002441406,1.010742,0.2583008,0.003417969,-0.5141602
550,-0.8125,-0.8125,-1.25,-0.03320313,-0.009277344,0.9990234,0.2583008,0.003417969,-0.5141602
554,-0.75,-1.25,-1.125,-0.01318359,0.002441406,0.9990234,0.2529297,-0.001464844,-0.5141602
555,-0.4375,-1.5,-0.875,-0.01708984,-0.009277344,0.9873047,0.2529297,-0.001464844,-0.5141602
559,-0.5625,-2,-0.4375,-0.02929688,-0.02099609,0.9912109,0.2529297,-0.001464844,-0.5141602
560,0.125,-2.625,-0.25,-0.005371094,-0.005371094,0.9833984,0.2607422,-0.01611328,-0.5117188
564,0.0625,-3.25,0,-0.02099609,-0.0009765625,0.9951172,0.2607422,-0.01611328,-0.5117188
565,0.5,-3.75,0.1875,-0.02539063,0.01855469,0.9790039,0.2607422,-0.01611328,-0.5117188
569,0.75,-4.0625,0,-0.01708984,-0.01318359,0.9990234,0.2636719,-0.00390625,-0.5195313
570,0.5625,-4.125,0.3125,-0.01708984,-0.0009765625,1.014648,0.2636719,-0.00390625,-0.5195313
574,1,-4,0.1875,-0.02539063,-0.005371094,0.9912109,0.2636719,-0.00390625,-0.5195313
575,1.3125,-3.625,0.4375,-0.001464844,-0.0009765625,0.9912109,0.2636719,-0.00390625,-0.5195313
579,2.1875,-3.5625,0.25,-0.01318359,0.002441406,0.9833984,0.2583008,0.005859375,-0.5117188
580,2,-3.0625,0.5,-0.02929688,-0.005371094,0.9912109,0.2583008,0.005859375,-0.5117188
584,1.25,-2.1875,0.75,-0.02099609,0.002441406,0.9750977,0.2583008,0.005859375,-0.5117188
585,0.5625,-1.3125,0.25,-0.03320313,-0.0009765625,0.9833984,0.2529297,-0.00390625,-0.5195313
589,0.0625,-0.5625,0.0625,-0.02929688,-0.01318359,0.9951172,0.2529297,-0.00390625,-0.5195313
590,0.25,-0.125,-0.0625,-0.02539063,0.01025391,1.010742,0.2529297,-0.00390625,-0.5195313
594,0.5625,-0.0625,-0.5,-0.02539063,0.02636719,1.018555,0.2529297,-0.00390625,-0.5195313
596,1.25,0.125,-0.75,-0.01708984,0.006347656,1.010742,0.2529297,-0.00390625,-0.5195313
600,1.25,0.1875,-1,-0.02929688,0.01025391,0.9990234,0.2529297,-0.00390625,-0.5195313
601,1.25,0.5,-0.875,-0.02929688,0.01025391,0.9990234,0.2529297,-0.00390625,-0.5195313
605,0.9375,0.9375,-1.375,-0.02099609,0.01416016,0.9672852,0.2583008,0.003417969,-0.5039063
606,0.75,1.25,-1.3125,-0.02539063,-0.01708984,0.9912109,0.2583008,0.003417969,-0.5039063
610,0.6875,1.375,-1.375,-0.03320313,0.002441406,1.00293,0.2583008,0.003417969,-0.5039063
611,0.8125,1.625,-1.125,-0.005371094,0.01855469,0.9912109,0.2529297,0.003417969,-0.5117188
615,0.625,1.5625,-1.4375,-0.02539063,-0.009277344,1.010742,0.2529297,0.003417969,-0.5117188
616,0.5625,1.375,-1.375,-0.01708984,0.01416016,0.9951172,0.2529297,0.003417969,-0.5117188
620,0.875,1.0625,-1.4375,-0.02539063,0.01855469,0.9990234,0.2529297,0.003417969,-0.5117188
621,0.6875,0.875,-1.25,-0.02539063,0.01025391,0.9912109,0.2529297,0.003417969,-0.5117188
625,-0.0625,0.6875,-1.375,-0.01318359,0.01855469,0.9990234,0.2529297,0.003417969,-0.5117188
626,-0.4375,0.5625,-1.375,-0.009277344,0.01025391,1.018555,0.2529297,0.003417969,-0.5117188
630,-0.125,0.75,-1.4375,-0.01318359,0.02636719,1.006836,0.2558594,-0.008789063,-0.5170898
631,-0.0625,0.9375,-1.125,-0.01318359,0.02636719,1.010742,0.2558594,-0.008789063,-0.5170898
635,0.375,1.1875,-1.3125,-0.009277344,0.01025391,1.00293,0.2558594,-0.008789063,-0.5170898
636,0.75,1.0625,-0.8125,-0.01318359,0.01025391,0.9990234,0.2558594,-0.00390625,-0.5195313
640,0.4375,0.6875,-0.9375,-0.01318359,0.01025391,1.014648,0.2558594,-0.00390625,-0.5195313
641,0,0.25,-1,-0.009277344,-0.02490234,0.9873047,0.2558594,-0.00390625,-0.5195313
645,-0.125,0.125,-0.8125,-0.005371094,0.006347656,0.9873047,0.2558594,-0.00390625,-0.5195313
646,0.625,0,-0.625,-0.01318359,0.006347656,0.9990234,0.2636719,-0.008789063,-0.5141602
650,1.3125,-0.3125,-0.5,-0.009277344,-0.0009765625,1.014648,0.2636719,-0.008789063,-0.5141602
651,1.5,-0.4375,-0.4375,-0.009277344,-0.005371094,1.014648,0.2636719,-0.008789063,-0.5141602
655,1,-0.6875,-0.5625,-0.01708984,-0.0009765625,0.9750977,0.2558594,0.0004882813,-0.5092773
656,0,-0.5,-0.3125,-0.02099609,-0.0009765625,1.010742,0.2558594,0.0004882813,-0.5092773
660,-0.6875,-0.625,-0.5625,-0.02929688,-0.005371094,0.9912109,0.2558594,0.0004882813,-0.5092773
661,-1.125,-0.625,-0.375,-0.02099609,0.01025391,1.014648,0.2558594,0.0004882813,-0.5039063
665,-1.25,-1.125,-0.5625,-0.02099609,-0.005371094,0.9951172,0.2558594,0.0004882813,-0.5039063
666,-1.125,-0.9375,-0.75,-0.01318359,0.01025391,0.9873047,0.2558594,0.0004882813,-0.5039063
670,-0.875,-1.125,-0.625,-0.02929688,0.01025391,0.9951172,0.2558594,0.0004882813,-0.5039063
671,-0.9375,-1.625,-0.6875,-0.01708984,0.01025391,0.9951172,0.2558594,0.005859375,-0.5092773
675,-1,-1.375,-0.8125,-0.01708984,0.02636719,1.006836,0.2558594,0.005859375,-0.5092773
676,-0.5,-1.5625,-0.75,-0.01708984,0.02246094,0.9873047,0.2558594,0.005859375,-0.5092773
680,-0.1875,-1.9375,-0.4375,-0.01708984,0.01025391,0.9873047,0.2529297,-0.006347656,-0.5219727
681,-0.0625,-2.25,-0.3125,-0.01318359,-0.005371094,0.9951172,0.2529297,-0.006347656,-0.5219727
685,-0.1875,-2.8125,-0.5,-0.01708984,0.01025391,0.9833984,0.2529297,-0.006347656,-0.5219727
686,0.375,-3.125,-0.1875,-0.005371094,0.01416016,1.00293,0.2529297,-0.006347656,-0.5219727
690,0.9375,-3.25,-0.1875,-0.02539063,0.03417969,0.9990234,0.2529297,-0.006347656,-0.5219727
691,1.4375,-3,-0.4375,-0.001464844,0.01855469,0.9912109,0.2529297,-0.006347656,-0.5219727
695,1.4375,-3.0625,-0.1875,-0.01318359,0.006347656,0.9873047,0.2529297,-0.006347656,-0.5219727
696,1.1875,-2.8125,-0.3125,-0.01708984,0.006347656,1.026367,0.2636719,-0.00390625,-0.5092773
700,1.125,-2.5,-0.375,0.005859375,-0.01318359,1.010742,0.2636719,-0.00390625,-0.5092773
701,0.5625,-2.3125,-0.5,-0.02929688,0.006347656,1.026367,0.2636719,-0.00390625,-0.5092773
705,0.375,-2.1875,-0.5625,-0.009277344,0.006347656,1.006836,0.2583008,-0.006347656,-0.5092773
706,0.6875,-1.9375,-0.8125,0.001953125,0.006347656,1.00293,0.2583008,-0.006347656,-0.5092773
710,0.4375,-1.25,-1,-0.009277344,0.006347656,1.022461,0.2583008,-0.006347656,-0.5092773
711,0.25,-0.625,-1.125,-0.001464844,0.006347656,1.026367,0.2583008,-0.006347656,-0.5092773
715,-0.625,0.1875,-1,-0.02099609,0.002441406,0.9951172,0.2583008,-0.006347656,-0.5092773
716,-1.125,1.1875,-0.625,-0.03710938,0.03417969,1.006836,0.2583008,-0.006347656,-0.5092773
720,-1.4375,1.625,-0.6875,-0.005371094,0.02636719,1.010742,0.2583008,-0.006347656,-0.5092773
721,-1.25,2.125,-0.9375,-0.009277344,0.01025391,1.00293,0.2607422,-0.001464844,-0.5170898
725,-0.9375,2,-1,-0.02099609,0.006347656,1.006836,0.2607422,-0.001464844,-0.5170898
726,-0.625,1.875,-1.0625,-0.01708984,0.02636719,1.014648,0.2607422,-0.001464844,-0.5170898
730,-1.125,1.6875,-1.125,-0.02099609,-0.01318359,0.9990234,0.2558594,-0.001464844,-0.5117188
731,-1.25,1.625,-1.0625,-0.005371094,-0.009277344,0.9711914,0.2558594,-0.001464844,-0.5117188
735,-0.75,1.1875,-0.9375,-0.02539063,0.006347656,0.9711914,0.2558594,-0.001464844,-0.5117188
736,-0.375,1,-0.375,-0.02539063,-0.01318359,0.9833984,0.2558594,-0.001464844,-0.5117188
740,-0.125,0.8125,-0.3125,-0.02539063,-0.01708984,0.9790039,0.2636719,0.003417969,-0.5092773
741,-0.5625,0.75,0.125,-0.009277344,0.01025391,0.9912109,0.2636719,0.003417969,-0.5092773
745,-0.6875,0.5625,0.125,-0.009277344,0.01025391,0.9951172,0.2636719,0.003417969,-0.5092773
746,-0.8125,0.4375,0.25,-0.03710938,0.02246094,0.9912109,0.2529297,-0.008789063,-0.5170898
750,-0.75,0.625,0.375,-0.01708984,0.02636719,0.9990234,0.2529297,-0.008789063,-0.5170898
751,-0.5625,0.5625,0.625,-0.02099609,0.006347656,0.9790039,0.2529297,-0.008789063,-0.5170898
755,-0.3125,0.25,0.6875,-0.02539063,0.02246094,0.9750977,0.2504883,-0.006347656,-0.5063477
758,-0.3125,-0.125,0.8125,-0.02099609,0.002441406,0.9912109,0.2504883,-0.006347656,-0.5063477
762,-0.1875,-0.25,0.6875,-0.01708984,0.006347656,0.9951172,0.2504883,-0.006347656,-0.5063477
763,0.625,-0.6875,0.625,-0.009277344,0.002441406,1.006836,0.2504883,-0.006347656,-0.5063477
767,1.25,-1.0625,0.9375,-0.01318359,0.006347656,0.9833984,0.2529297,0.003417969,-0.5141602
768,1.1875,-1.3125,0.8125,-0.005371094,-0.0009765625,0.9951172,0.2529297,0.003417969,-0.5141602
772,1.25,-1.5625,0.625,-0.005371094,0.01416016,0.9833984,0.2529297,0.003417969,-0.5141602
773,1.1875,-2.25,0.5,-0.02539063,-0.01318359,0.9951172,0.2661133,-0.006347656,-0.5092773
777,1.3125,-2.25,0.5625,-0.02099609,0.006347656,0.9833984,0.2661133,-0.006347656,-0.5092773
778,0.8125,-2.125,0.25,-0.01708984,0.006347656,0.9711914,0.2661133,-0.006347656,-0.5092773
782,0.625,-1.9375,0.0625,-0.01708984,0.02246094,1.014648,0.2661133,-0.006347656,-0.5092773
783,0.6875,-1.1875,0.25,-0.005371094,0.01025391,0.9912109,0.2661133,-0.006347656,-0.5092773
787,0.875,-1.1875,-0.0625,-0.02539063,-0.0009765625,0.9833984,0.2661133,-0.006347656,-0.5092773
788,1.5,-1.0625,-0.3125,-0.009277344,0.01025391,0.9833984,0.2661133,-0.006347656,-0.5092773
792,1.8125,-1,-0.125,-0.009277344,0.01025391,0.9912109,0.2529297,-0.006347656,-0.5141602
793,1.8125,-1.25,-0.5,-0.009277344,0.01855469,0.9951172,0.2529297,-0.006347656,-0.5141602
797,1.4375,-0.75,-0.25,-0.03320313,0.01025391,0.9912109,0.2529297,-0.006347656,-0.5141602
798,0.75,-0.9375,-0.1875,-0.02539063,0.006347656,0.9750977,0.2529297,0.005859375,-0.5141602
802,0.5,-1.1875,0,-0.02929688,0.01025391,1.010742,0.2529297,0.005859375,-0.5141602
803,0.625,-1.25,-0.1875,-0.01318359,0.01025391,0.9990234,0.2529297,0.005859375,-0.5141602
807,0.875,-1.6875,-0.5625,-0.009277344,-0.0009765625,0.9951172,0.2529297,0.005859375,-0.5141602
808,1.1875,-1.75,-0.25,-0.005371094,-0.005371094,0.9912109,0.2529297,0.005859375,-0.5141602
812,1.0625,-1.625,-0.25,-0.02929688,0.002441406,0.9873047,0.2529297,0.005859375,-0.5141602
813,0.4375,-1.125,-0.375,-0.02099609,0.006347656,0.9912109,0.2529297,0.005859375,-0.5141602
817,-0.125,-1.125,-0.375,-0.01708984,0.02636719,0.9951172,0.2529297,-0.001464844,-0.5219727
818,-0.625,-0.9375,-0.25,-0.009277344,0.002441406,1.006836,0.2529297,-0.001464844,-0.5219727
822,-0.9375,-0.75,-0.1875,-0.04101563,-0.005371094,0.9833984,0.2529297,-0.001464844,-0.5219727
823,-0.875,-1.0625,-0.6875,-0.005371094,0.01025391,1.00293,0.2504883,0.0004882813,-0.5063477
827,-0.5,-0.9375,-0.75,-0.02539063,0.002441406,0.9951172,0.2504883,0.0004882813,-0.5063477
828,0.25,-0.375,-0.6875,-0.02099609,0.01025391,1.03418,0.2504883,0.0004882813,-0.5063477
832,1,0,-0.625,-0.02539063,0.01855469,1.00293,0.2504883,0.0004882813,-0.5063477
833,2,0.6875,-0.6875,-0.01318359,0.01025391,1.010742,0.2529297,0.005859375,-0.5117188
837,2.375,1.375,-0.75,-0.02929688,0.03027344,1.018555,0.2529297,0.005859375,-0.5117188
838,3.0625,2.3125,-0.6875,0.001953125,0.002441406,1.026367,0.2529297,0.005859375,-0.5117188
842,3.6875,2.25,-0.875,-0.01708984,0.006347656,0.9833984,0.2529297,-0.001464844,-0.5141602
843,4.125,2.5625,-0.9375,0.001953125,0.03027344,1.00293,0.2529297,-0.001464844,-0.5141602
847,4.4375,2.3125,-1,-0.005371094,0.01025391,1.014648,0.2529297,-0.001464844,-0.5141602
848,4.8125,2.0625,-0.9375,-0.005371094,0.01855469,0.9833984,0.2583008,0.0004882813,-0.5039063
852,4.5625,1.625,-0.9375,-0.005371094,0.01416016,0.9951172,0.2583008,0.0004882813,-0.5039063
853,3.5625,1.5625,-0.875,-0.01708984,-0.0009765625,0.9833984,0.2583008,0.0004882813,-0.5039063
857,3,1.25,-0.375,-0.02099609,0.02246094,0.9833984,0.2583008,0.0004882813,-0.5039063
858,3.4375,1.0625,-0.375,-0.001464844,0.01855469,1.010742,0.2504883,0.0004882813,-0.5117188
862,4.3125,1.0625,0,-0.01318359,0.002441406,1.010742,0.2504883,0.0004882813,-0.5117188
863,4.9375,1.1875,0.1875,-0.03710938,0.01855469,1.010742,0.2504883,0.0004882813,-0.5117188
867,5.0625,1.3125,0.125,-0.009277344,0.01416016,0.9951172,0.2504883,-0.00390625,-0.5195313
868,4.5625,1.125,0.5625,-0.01318359,-0.0009765625,1.00293,0.2504883,-0.00390625,-0.5195313
872,3.75,0.875,0.875,-0.009277344,0.006347656,0.9951172,0.2504883,-0.00390625,-0.5195313
873,2.9375,0.625,1.125,-0.01708984,0.01025391,0.9912109,0.2558594,-0.006347656,-0.5117188
877,2.625,0.0625,1,-0.01318359,0.002441406,0.9912109,0.2558594,-0.006347656,-0.5117188
878,2.0625,-0.375,0.9375,-0.02539063,0.01416016,1.006836,0.2558594,-0.006347656,-0.5117188
882,1.375,-0.25,1.1875,-0.001464844,0.002441406,1.010742,0.2558594,-0.006347656,-0.5117188
883,0.3125,-0.5,1.25,-0.005371094,0.03027344,1.00293,0.2583008,-0.00390625,-0.5170898
887,0.125,-0.5625,0.8125,-0.02099609,0.02636719,0.9951172,0.2583008,-0.00390625,-0.5170898
888,0.1875,-0.875,0.6875,-0.005371094,0.02636719,0.9873047,0.2583008,-0.00390625,-0.5170898
892,0.75,-1.1875,0.625,-0.01708984,0.002441406,0.9750977,0.2607422,-0.008789063,-0.5141602
893,0.625,-1.125,0.1875,-0.001464844,-0.009277344,0.9951172,0.2607422,-0.008789063,-0.5141602
897,0.25,-1.375,0.4375,-0.009277344,0.01025391,1.00293,0.2607422,-0.008789063,-0.5141602
898,-0.3125,-1.5625,0.0625,-0.02099609,0.01416016,1.010742,0.2607422,-0.008789063,-0.5141602
902,-0.0625,-1.5,-0.3125,-0.01708984,0.01025391,0.9912109,0.2607422,-0.008789063,-0.5141602
903,0.4375,-1.5625,-0.6875,-0.02099609,0.02636719,0.9833984,0.2607422,-0.008789063,-0.5141602
907,0.9375,-1.4375,-0.6875,-0.02539063,0.01025391,1.014648,0.2607422,-0.008789063,-0.5141602
908,1.375,-0.8125,-0.875,-0.02539063,0.002441406,0.9990234,0.2480469,0.003417969,-0.5141602
912,0.75,-0.5625,-1.125,-0.01318359,0.002441406,0.9711914,0.2480469,0.003417969,-0.5141602
913,0.5,0,-1.25,-0.005371094,0.01025391,0.9951172,0.2480469,0.003417969,-0.5141602
917,0.0625,0,-1.125,-0.02099609,-0.02099609,0.9833984,0.2583008,-0.001464844,-0.5141602
919,0.8125,-0.375,-0.9375,-0.02539063,0.01025391,0.9951172,0.2583008,-0.001464844,-0.5141602
923,1.625,-0.375,-0.8125,-0.01318359,0.006347656,0.9951172,0.2583008,-0.001464844,-0.5141602
924,2.625,-0.25,-0.4375,-0.02099609,0.01416016,1.018555,0.2583008,-0.001464844,-0.5141602
928,3.1875,-0.0625,0.1875,-0.01708984,0.002441406,1.014648,0.2583008,-0.006347656,-0.5141602
929,3.125,0.5625,0.5625,-0.01708984,0.01025391,0.9951172,0.2583008,-0.006347656,-0.5141602
933,3.25,0.75,1.0625,-0.02099609,-0.005371094,0.9912109,0.2583008,-0.006347656,-0.5141602
934,3.375,0.875,1.5,-0.02539063,0.01416016,1.010742,0.2558594,0.003417969,-0.5117188
938,4.0625,1.5,1.8125,-0.005371094,0.01855469,0.9912109,0.2558594,0.003417969,-0.5117188
939,4.75,2.125,1.9375,-0.01708984,0.03027344,1.00293,0.2558594,0.003417969,-0.5117188
943,5.5,2.625,2.5,-0.02099609,-0.0009765625,1.022461,0.2607422,-0.006347656,-0.5170898
944,5.4375,3.75,3.6875,0.005859375,0.01855469,0.9912109,0.2607422,-0.006347656,-0.5170898
948,3.8125,4.75,1.8125,0.01416016,0.002441406,1.010742,0.2607422,-0.006347656,-0.5170898
949,2.9375,5.1875,2.1875,-0.02539063,0.02636719,1.010742,0.2607422,-0.006347656,-0.5170898
953,2,6.375,1.6875,-0.02099609,0.03417969,1.010742,0.2558594,-0.00390625,-0.5141602
954,1.6875,6.625,1.0625,-0.01318359,0.006347656,0.9951172,0.2558594,-0.00390625,-0.5141602
958,1.6875,6.875,0.5625,-0.02539063,0.03027344,1.010742,0.2558594,-0.00390625,-0.5141602
959,1.625,7.0625,0.3125,-0.01708984,0.03027344,0.9990234,0.2529297,0.0004882813,-0.5117188
963,1.4375,6.875,-0.0625,-0.01708984,0.01855469,0.9951172,0.2529297,0.0004882813,-0.5117188
964,1.1875,6.0625,-0.5625,0.001953125,0.01855469,0.9912109,0.2529297,0.0004882813,-0.5117188
968,0.875,5.25,-0.75,-0.02099609,0.04638672,1.026367,0.2607422,-0.001464844,-0.5195313
969,0.625,3.9375,-0.9375,-0.01708984,0.01025391,0.9912109,0.2607422,-0.001464844,-0.5195313
973,-0.0625,3.1875,-1.125,-0.01708984,0.006347656,0.9951172,0.2607422,-0.001464844,-0.5195313
974,-1.4375,2.5625,-1.25,-0.02539063,0.02246094,0.9711914,0.2607422,-0.001464844,-0.5195313
978,-2.625,2.0625,-1.0625,-0.02929688,0.03857422,0.9873047,0.2583008,-0.01123047,-0.5141602
979,-3.5625,1.6875,-1.3125,-0.02539063,0.02636719,0.9951172,0.2583008,-0.01123047,-0.5141602
983,-3.375,0.875,-1.3125,-0.04492188,0.02636719,0.9951172,0.2583008,-0.01123047,-0.5141602
984,-3,0,-1.3125,-0.01318359,0.02246094,0.9833984,0.2636719,-0.006347656,-0.5063477
988,-2.4375,-1.125,-1.0625,-0.01708984,0.02636719,1.00293,0.2636719,-0.006347656,-0.5063477
989,-2.1875,-1.8125,-0.8125,-0.03320313,0.01855469,0.9912109,0.2636719,-0.006347656,-0.5063477
993,-1.875,-2.5625,-0.625,-0.03320313,0.02246094,0.9750977,0.2636719,-0.006347656,-0.5063477
994,-1.6875,-2.9375,-0.375,-0.04101563,0.02636719,0.9873047,0.2636719,-0.006347656,-0.5063477
998,-1,-3.375,-0.1875,-0.001464844,0.01416016,1.00293,0.2636719,-0.006347656,-0.5063477
999,-0.875,-3.1875,0,-0.01708984,0.01025391,0.9833984,0.2636719,-0.006347656,-0.5063477
1003,-0.3125,-3.0625,0,-0.03320313,0.03417969,0.9951172,0.2636719,-0.01367188,-0.5117188
1004,-0.5625,-2.875,0.3125,-0.02099609,0.03857422,0.9912109,0.2636719,-0.01367188,-0.5117188
1008,-1.1875,-3.3125,0.5625,-0.02539063,0.01025391,1.006836,0.2636719,-0.01367188,-0.5117188
1009,-1.5625,-3.625,0.875,-0.01318359,0.02246094,0.9912109,0.2529297,0.0004882813,-0.5117188
1013,-1.625,-4,1.0625,-0.001464844,0.02246094,1.010742,0.2529297,0.0004882813,-0.5117188
1014,-1.5,-3.9375,1.5,-0.02539063,0.002441406,1.010742,0.2529297,0.0004882813,-0.5117188
1018,-0.9375,-3.625,1.8125,-0.01318359,0.01025391,1.010742,0.2529297,0.0004882813,-0.5117188
1019,-1.125,-3.9375,1.9375,-0.01708984,0.01855469,1.010742,0.2583008,-0.01123047,-0.5141602
1023,-0.6875,-4.0625,2.125,-0.01318359,0.02636719,0.9990234,0.2583008,-0.01123047,-0.5141602
1024,-0.125,-4.125,2,-0.02099609,0.02246094,1.006836,0.2583008,-0.01123047,-0.5141602
1028,0.5625,-3.875,1.875,0.001953125,0.03857422,1.014648,0.2558594,-0.008789063,-0.5141602
1029,1.0625,-3.375,1.75,-0.02539063,0.002441406,1.006836,0.2558594,-0.008789063,-0.5141602
1033,1.6875,-2.4375,1.6875,-0.02099609,0.03027344,1.026367,0.2558594,-0.008789063,-0.5141602
1034,2.125,-1.9375,1.5625,-0.01318359,0.02246094,1.026367,0.2558594,-0.006347656,-0.5092773
1038,1.875,-1.3125,1.1875,-0.01318359,0.03417969,0.9912109,0.2558594,-0.006347656,-0.5092773
1039,0.75,-1.0625,0.8125,-0.02099609,0.02636719,1.010742,0.2558594,-0.006347656,-0.5092773
1043,-0.125,-0.4375,0.875,-0.01318359,0.03417969,0.9990234,0.2558594,-0.006347656,-0.5092773
1044,-0.8125,0.4375,0.6875,-0.005371094,0.03857422,0.9873047,0.2661133,-0.008789063,-0.5063477
1048,-1,0.875,0.375,-0.005371094,0.02246094,1.014648,0.2661133,-0.008789063,-0.5063477
1049,-0.6875,0.9375,0.25,0.001953125,0.01855469,0.9912109,0.2661133,-0.008789063,-0.5063477
1053,-0.5,1.0625,-0.1875,-0.03320313,0.006347656,1.014648,0.2558594,-0.006347656,-0.5117188
1054,-0.5625,1.3125,-0.375,-0.005371094,0.03027344,1.006836,0.2558594,-0.006347656,-0.5117188
1058,-1.0625,1.5625,-0.4375,-0.001464844,-0.0009765625,0.9873047,0.2558594,-0.006347656,-0.5117188
1059,-1.875,1.6875,-0.5625,-0.009277344,0.002441406,0.9990234,0.2529297,-0.006347656,-0.5170898
1063,-2.1875,1.6875,-0.5625,-0.01708984,0.03027344,1.026367,0.2529297,-0.006347656,-0.5170898
1064,-2.5625,1.9375,-0.9375,-0.03320313,0.03857422,1.010742,0.2529297,-0.006347656,-0.5170898
1068,-2.3125,2.0625,-1.25,-0.001464844,0.02636719,1.018555,0.2529297,-0.006347656,-0.5170898
1069,-2.375,2.375,-1.3125,-0.01708984,0.03417969,1.014648,0.2558594,-0.006347656,-0.5117188
1073,-2.1875,3.0625,-1.625,-0.005371094,0.02246094,1.010742,0.2558594,-0.006347656,-0.5117188
1074,-2,4.125,-1.3125,-0.02929688,0.02636719,1.010742,0.2558594,-0.006347656,-0.5117188
1078,-1.8125,4.625,-1.375,-0.009277344,0.02246094,1.00293,0.2529297,-0.00390625,-0.5092773
1080,-1.75,4.9375,-1.25,-0.04101563,0.01025391,0.9990234,0.2529297,-0.00390625,-0.5092773
1084,-1.625,5.0625,-1.0625,-0.01708984,0.01855469,0.9990234,0.2529297,-0.00390625,-0.5092773
1085,-1.0625,4.1875,-0.8125,-0.01708984,0.01025391,1.00293,0.2529297,-0.00390625,-0.5092773
1089,-0.3125,3.375,-0.375,0.001953125,0.01416016,1.026367,0.2529297,-0.00390625,-0.5092773
1090,0.375,2.25,-0.1875,-0.02539063,0.002441406,0.9833984,0.2529297,-0.00390625,-0.5092773
1094,1,1,0.25,-0.01318359,0.01025391,1.010742,0.2529297,-0.00390625,-0.5092773
1095,1.25,-0.1875,0.8125,-0.01708984,0.01025391,0.9990234,0.2583008,-0.00390625,-0.5092773
1099,1.25,-1.75,1,-0.02929688,0.006347656,0.9833984,0.2583008,-0.00390625,-0.5092773
1100,1.375,-2.25,1.6875,-0.02539063,0.006347656,0.9912109,0.2583008,-0.00390625,-0.5092773
1104,1.5625,-2.75,2,-0.02929688,0.01416016,0.9790039,0.2636719,-0.00390625,-0.5170898
1105,1.625,-3.5,2.625,-0.02099609,0.002441406,0.9912109,0.2636719,-0.00390625,-0.5170898
1109,1.4375,-4.125,2.625,-0.005371094,0.01025391,0.9833984,0.2636719,-0.00390625,-0.5170898
1110,1.375,-4.8125,2.625,-0.01318359,0.01025391,0.9990234,0.2636719,-0.00390625,-0.5170898
1114,1.25,-5.25,2.5,-0.02929688,0.02246094,0.9873047,0.2583008,0.0004882813,-0.5063477
1115,1.4375,-5.25,2.25,-0.009277344,-0.0009765625,1.018555,0.2583008,0.0004882813,-0.5063477
1119,1.375,-5,2,-0.01708984,0.002441406,0.9912109,0.2583008,0.0004882813,-0.5063477
1120,1.0625,-4.625,1.9375,0.005859375,-0.02099609,0.9951172,0.2558594,0.005859375,-0.5063477
1124,0.4375,-4.3125,1.125,0.001953125,0.02636719,1.026367,0.2558594,0.005859375,-0.5063477
1125,0,-4,0.8125,-0.02099609,0.006347656,1.010742,0.2558594,0.005859375,-0.5063477
1129,-0.9375,-3.75,0.3125,-0.02539063,0.01416016,0.9990234,0.2558594,-0.00390625,-0.5244141
1130,-1.6875,-3.1875,0.0625,-0.005371094,0.03027344,1.006836,0.2558594,-0.00390625,-0.5244141
1134,-2.4375,-2.8125,-0.125,-0.01318359,0.01416016,0.9990234,0.2558594,-0.00390625,-0.5244141
1135,-2.625,-2.125,-0.1875,-0.02929688,0.03417969,1.006836,0.2558594,-0.00390625,-0.5244141
1139,-1.8125,-2.0625,-0.375,0.01025391,0.02246094,0.9990234,0.2583008,-0.01367188,-0.5141602
1140,-1.375,-1.75,-0.625,-0.005371094,0.04638672,1.00293,0.2583008,-0.01367188,-0.5141602
1144,-0.75,-1.5625,-0.8125,-0.005371094,0.01855469,1.00293,0.2583008,-0.01367188,-0.5141602
1145,-0.3125,-1.0625,-1.0625,-0.03710938,0.04248047,1.014648,0.2661133,-0.006347656,-0.5141602
1149,0.125,-0.1875,-1,-0.03320313,0.04638672,0.9990234,0.2661133,-0.006347656,-0.5141602
1150,0.75,0.6875,-1.25,-0.005371094,0.01416016,0.9833984,0.2661133,-0.006347656,-0.5141602
1154,1.375,1.3125,-1.125,-0.009277344,0.02636719,1.010742,0.2529297,0.003417969,-0.5092773
1155,2.0625,2.3125,-1.375,-0.001464844,0.02636719,1.030273,0.2529297,0.003417969,-0.5092773
1159,2.4375,2.75,-1.125,-0.02539063,0.03417969,0.9990234,0.2529297,0.003417969,-0.5092773
1160,3.4375,3.0625,-1.0625,-0.009277344,0.01855469,0.9951172,0.2529297,0.003417969,-0.5092773
1164,3.75,3.4375,-0.875,-0.009277344,0.02246094,1.010742,0.2558594,-0.006347656,-0.5039063
1165,4,3.8125,-0.3125,-0.02929688,0.01855469,1.014648,0.2558594,-0.006347656,-0.5039063
1169,4.1875,3.5,-0.125,-0.01318359,-0.0009765625,1.00293,0.2558594,-0.006347656,-0.5039063
1170,4.5,3,0.125,-0.01318359,0.04248047,1.010742,0.2583008,-0.01123047,-0.5117188
1174,4.9375,3.125,0.5,-0.005371094,0.01855469,1.00293,0.2583008,-0.01123047,-0.5117188
1175,4.5,3.375,0.6875,-0.01708984,-0.0009765625,0.9912109,0.2583008,-0.01123047,-0.5117188
1179,3.625,3.3125,0.875,-0.005371094,0.01025391,0.9951172,0.2583008,-0.01123047,-0.5117188
1180,3,3.6875,0.875,0.005859375,0.02636719,0.9912109,0.2583008,-0.01123047,-0.5117188
1184,2.8125,3.375,1.25,-0.009277344,0.01416016,0.9990234,0.2583008,-0.01123047,-0.5117188
1185,3.1875,3.1875,2.75,-0.01708984,0.006347656,0.9990234,0.2583008,-0.01123047,-0.5117188
1189,1.3125,3.0625,1.8125,0.001953125,0.01416016,0.9951172,0.2558594,-0.008789063,-0.5092773
1190,0.8125,2.0625,2.0625,-0.03320313,0.01025391,1.010742,0.2558594,-0.008789063,-0.5092773
1194,0.0625,1.3125,1.375,-0.009277344,0.04638672,1.00293,0.2558594,-0.008789063,-0.5092773
1195,1.5625,0.75,0.875,-0.02929688,0.03027344,1.018555,0.2607422,-0.008789063,-0.5219727
1199,2.1875,0.4375,0.6875,-0.02099609,0.03857422,0.9990234,0.2607422,-0.008789063,-0.5219727
1200,1,1,0.4375,-0.005371094,0.01855469,0.9912109,0.2607422,-0.008789063,-0.5219727
1204,-0.875,1.1875,0.25,-0.01318359,0.02246094,1.00293,0.2607422,-0.008789063,-0.5219727
1205,-2.0625,1.3125,0.5,-0.02099609,0.01855469,1.014648,0.2558594,-0.008789063,-0.5092773
1209,-2.25,1.4375,0.375,-0.005371094,0.02636719,1.010742,0.2558594,-0.008789063,-0.5092773
1210,-1.875,1.8125,0.6875,-0.01318359,0.006347656,1.022461,0.2558594,-0.008789063,-0.5092773
1214,-1.9375,1.625,0.5,-0.02539063,0.02246094,1.018555,0.2529297,0.0004882813,-0.5170898
1215,-2.125,1.25,0.6875,-0.009277344,0.03027344,1.018555,0.2529297,0.0004882813,-0.5170898
1219,-2.125,1.25,0.5,-0.01708984,0.02246094,1.00293,0.2529297,0.0004882813,-0.5170898
1220,-2,1.125,0.8125,-0.01318359,0.01025391,0.9750977,0.2558594,0.0004882813,-0.5170898
1224,-2.4375,0.875,0.875,-0.02099609,0.01855469,0.9912109,0.2558594,0.0004882813,-0.5170898
1225,-2.75,1,0.5625,-0.02539063,0.01025391,1.00293,0.2558594,0.0004882813,-0.5170898
1229,-3.25,1.0625,0.375,-0.02099609,0.02636719,1.006836,0.2558594,0.0004882813,-0.5170898
1230,-3.1875,1.3125,0,-0.01708984,0.02636719,0.9990234,0.2583008,-0.01367188,-0.5170898
1234,-2.9375,1.75,-0.375,-0.01318359,0.02246094,1.010742,0.2583008,-0.01367188,-0.5170898
1235,-3.5,2.1875,-0.75,-0.03320313,0.01025391,1.006836,0.2583008,-0.01367188,-0.5170898
1239,-3.8125,2.375,-1,-0.005371094,0.03027344,1.014648,0.2583008,-0.01123047,-0.5117188
1241,-3.4375,2.75,-1.4375,-0.02539063,0.03857422,0.9750977,0.2583008,-0.01123047,-0.5117188
1245,-3.3125,2.6875,-1.5,-0.009277344,0.02636719,1.00293,0.2583008,-0.01123047,-0.5117188
1246,-2.75,3.1875,-1.625,-0.02099609,0.02246094,1.00293,0.2529297,-0.00390625,-0.5092773
1250,-1.875,3.1875,-1.375,-0.03710938,0.002441406,0.9833984,0.2529297,-0.00390625,-0.5092773
1251,-1.625,3.375,-1.1875,-0.02539063,0.01025391,1.014648,0.2529297,-0.00390625,-0.5092773
1255,-1.625,3.375,-1.375,-0.02929688,0.006347656,0.9951172,0.2529297,-0.00390625,-0.5092773
1256,-1.875,3.3125,-1,-0.03710938,0.01025391,0.9873047,0.2661133,-0.00390625,-0.5014648
1260,-2.25,2.6875,-0.5625,-0.01318359,0.01025391,0.9672852,0.2661133,-0.00390625,-0.5014648
1261,-2.625,1.8125,-0.375,-0.02099609,0.006347656,0.9912109,0.2661133,-0.00390625,-0.5014648
1265,-2.1875,1.1875,0.375,-0.01318359,0.006347656,0.9990234,0.2583008,-0.01123047,-0.5092773
1266,-1.8125,0.75,0.6875,-0.04101563,0.006347656,1.010742,0.2583008,-0.01123047,-0.5092773
1270,-1.25,0.3125,0.9375,-0.02539063,0.02636719,1.022461,0.2583008,-0.01123047,-0.5092773
1271,-1.25,-0.125,1.375,-0.02099609,0.02636719,0.9711914,0.2583008,-0.01123047,-0.5092773
1275,-1.4375,-0.9375,1.375,-0.03710938,0.002441406,0.9873047,0.2583008,-0.01123047,-0.5092773
1276,-2.0625,-1.8125,1.375,-0.01708984,0.03027344,0.9873047,0.2583008,-0.01123047,-0.5092773
1280,-2.125,-2.25,1.125,-0.02539063,0.01855469,0.9951172,0.2583008,-0.01123047,-0.5092773
1281,-1.9375,-2.375,1.4375,-0.02539063,0.01025391,0.9873047,0.2558594,0.0004882813,-0.5092773
1285,-2.1875,-2.5,1.5625,-0.02929688,0.02636719,0.9912109,0.2558594,0.0004882813,-0.5092773
1286,-2.375,-2.625,1.1875,-0.02099609,0.03417969,1.00293,0.2558594,0.0004882813,-0.5092773
1290,-3,-3,1.3125,-0.04101563,0.01025391,1.010742,0.2607422,-0.00390625,-0.5170898
1291,-3.0625,-2.8125,1.375,-0.02099609,-0.0009765625,1.018555,0.2607422,-0.00390625,-0.5170898
1295,-3.1875,-2.6875,1,-0.009277344,0.006347656,1.014648,0.2607422,-0.00390625,-0.5170898
1296,-3,-2.1875,0.875,-0.02539063,0.002441406,0.9990234,0.2607422,-0.00390625,-0.5170898
1300,-2.8125,-1.625,0.9375,-0.001464844,0.01855469,1.010742,0.2607422,-0.00390625,-0.5170898
1301,-2.3125,-1.0625,0.6875,-0.02099609,-0.0009765625,1.00293,0.2607422,-0.00390625,-0.5170898
1305,-1.3125,-0.5,0.6875,-0.001464844,0.02636719,1.006836,0.2607422,-0.00390625,-0.5170898
1306,-0.1875,-0.0625,0.25,-0.01318359,0.02636719,1.014648,0.2636719,-0.008789063,-0.5141602
1310,0.5,0.75,0.25,-0.009277344,0.006347656,1.026367,0.2636719,-0.008789063,-0.5141602
1311,0,1.1875,-0.125,-0.02539063,0.01416016,1.00293,0.2636719,-0.008789063,-0.5141602
1315,-0.5,1.5625,-0.0625,-0.02099609,0.01025391,1.00293,0.2583008,0.005859375,-0.5141602
1316,-1.125,1.875,-0.5,-0.02099609,-0.0009765625,0.9790039,0.2583008,0.005859375,-0.5141602
1320,-1.5625,2,-0.625,-0.03320313,0.02636719,0.9672852,0.2583008,0.005859375,-0.5141602
1321,-1.9375,1.9375,-0.625,-0.02539063,0.01025391,1.006836,0.2583008,0.005859375,-0.5141602
1325,-2.375,1.4375,-0.875,-0.01708984,0.02246094,1.010742,0.2558594,-0.00390625,-0.5117188
1326,-2.6875,1.0625,-0.625,-0.005371094,0.006347656,0.9873047,0.2558594,-0.00390625,-0.5117188
1330,-3.1875,0.875,-0.9375,-0.02099609,0.006347656,1.006836,0.2558594,-0.00390625,-0.5117188
1331,-3.3125,0.25,-0.8125,-0.001464844,0.02636719,0.9990234,0.2607422,-0.01123047,-0.5170898
1335,-3.0625,-0.25,-0.75,-0.02539063,0.002441406,1.00293,0.2607422,-0.01123047,-0.5170898
1336,-2.875,-0.5625,-0.75,0.001953125,0.01025391,0.9912109,0.2607422,-0.01123047,-0.5170898
1340,-2.5625,-1.25,-0.9375,-0.02539063,0.002441406,0.9951172,0.2607422,-0.00390625,-0.5014648
1341,-2.3125,-1.3125,-0.5,-0.009277344,0.01855469,0.9672852,0.2607422,-0.00390625,-0.5014648
1345,-1.8125,-1.375,-0.75,-0.01708984,0.002441406,1.010742,0.2607422,-0.00390625,-0.5014648
1346,-1,-1.375,-0.25,-0.04101563,0.03027344,1.018555,0.2607422,-0.00390625,-0.5014648
1350,-0.375,-1.3125,0.125,-0.02539063,0.002441406,1.010742,0.2583008,-0.001464844,-0.5063477
1351,-0.0625,-1.4375,0.5625,-0.02539063,-0.005371094,0.9912109,0.2583008,-0.001464844,-0.5063477
1355,0.1875,-1.5625,0.5,-0.02099609,0.01855469,0.9790039,0.2583008,-0.001464844,-0.5063477
1356,0.375,-1.3125,0.8125,-0.01318359,0.02246094,0.9873047,0.2583008,-0.006347656,-0.5063477
1360,-0.25,-1.875,1.125,-0.02539063,-0.0009765625,0.9873047,0.2583008,-0.006347656,-0.5063477
1361,-0.5625,-1.9375,1.5625,-0.02099609,0.006347656,1.006836,0.2583008,-0.006347656,-0.5063477
1365,-1.4375,-1.8125,1.4375,-0.005371094,0.01025391,1.00293,0.2583008,-0.006347656,-0.5063477
1366,-1.375,-1.8125,1.1875,-0.02539063,-0.005371094,0.9833984,0.2583008,-0.006347656,-0.5063477
1370,-1.3125,-1.5625,1.1875,-0.02099609,0.01416016,1.010742,0.2583008,-0.006347656,-0.5063477
1371,-1.4375,-0.75,1.3125,-0.03320313,0.01855469,0.9990234,0.2583008,-0.006347656,-0.5063477
1375,-2.5,0.3125,1.0625,-0.02929688,0.01416016,1.014648,0.2583008,-0.01123047,-0.5141602
1376,-2.625,1.25,0.6875,-0.03320313,0.02636719,0.9990234,0.2583008,-0.01123047,-0.5141602
1380,-2.0625,2.0625,0.3125,-0.009277344,0.03027344,1.014648,0.2583008,-0.01123047,-0.5141602
1381,-1.0625,2.25,0.0625,-0.02539063,0.03027344,1.00293,0.2583008,0.0004882813,-0.5092773
1385,-0.4375,2.3125,-0.25,-0.009277344,0.02246094,1.010742,0.2583008,0.0004882813,-0.5092773
1386,-0.3125,2.1875,-0.8125,-0.01318359,0.01855469,0.9990234,0.2583008,0.0004882813,-0.5092773
1390,-0.625,2.0625,-0.75,-0.02539063,0.006347656,1.00293,0.2583008,0.0004882813,-0.5092773
1391,0,2.25,-1.25,-0.009277344,0.02636719,1.018555,0.2583008,0.0004882813,-0.5092773
1395,0.375,2.5625,-1.5,-0.01708984,0.02246094,0.9951172,0.2583008,0.0004882813,-0.5092773
1396,1.5,2.875,-1.375,-0.02099609,0.006347656,1.006836,0.2583008,0.0004882813,-0.5092773
1400,1.625,3,-1.625,-0.01318359,0.03027344,1.030273,0.2558594,-0.008789063,-0.5117188
1403,1.4375,2.9375,-1.6875,-0.02539063,0.03857422,1.010742,0.2558594,-0.008789063,-0.5117188
1407,0.4375,3.5,-1.875,-0.02929688,0.01855469,0.9912109,0.2558594,-0.008789063,-0.5117188
1408,-0.375,3.75,-2.125,-0.01318359,0.01025391,1.03418,0.2558594,-0.00390625,-0.5092773
1412,-0.875,3.8125,-2,-0.02539063,0.02636719,0.9951172,0.2558594,-0.00390625,-0.5092773
1413,-1.125,3.5,-1.8125,-0.02929688,0.02636719,1.014648,0.2558594,-0.00390625,-0.5092773
1417,-2.25,3.125,-1.4375,-0.04492188,-0.01318359,1.006836,0.2558594,-0.00390625,-0.5092773
1418,-3.125,2.6875,-1.0625,-0.009277344,-0.005371094,0.9711914,0.2558594,-0.001464844,-0.5141602
1422,-3.875,2.25,-0.625,-0.01708984,0.006347656,0.9790039,0.2558594,-0.001464844,-0.5141602
1423,-3.625,1.6875,-0.4375,-0.02539063,0.002441406,0.9951172,0.2558594,-0.001464844,-0.5141602
1427,-3.125,1,0.375,-0.01708984,0.006347656,0.9912109,0.2558594,-0.001464844,-0.5170898
1428,-2.8125,0.4375,0,-0.01708984,0.006347656,0.9951172,0.2558594,-0.001464844,-0.5170898
1432,-2.5,-0.1875,0.5,-0.01318359,0.01025391,1.010742,0.2558594,-0.001464844,-0.5170898
1433,-2.4375,-0.8125,0.5,-0.005371094,0.01855469,0.9912109,0.2558594,-0.00390625,-0.5092773
1437,-2.375,-1.625,0.5,-0.01708984,0.006347656,1.010742,0.2558594,-0.00390625,-0.5092773
1438,-2.3125,-2.125,0.9375,-0.005371094,-0.0009765625,1.010742,0.2558594,-0.00390625,-0.5092773
1442,-1.9375,-2.125,1.125,-0.001464844,0.01025391,0.9951172,0.2558594,-0.00390625,-0.5092773
1443,-1.8125,-2.4375,1.1875,-0.005371094,-0.005371094,1.03418,0.2583008,0.003417969,-0.5219727
1447,-1.5625,-2.1875,0.75,-0.01318359,0.01416016,1.026367,0.2583008,0.003417969,-0.5219727
1448,-1.4375,-2.5,0.875,0.01025391,0.006347656,0.9873047,0.2583008,0.003417969,-0.5219727
1452,-1.1875,-2.3125,0.5,0.005859375,-0.009277344,0.9750977,0.2558594,0.003417969,-0.5092773
1453,-0.125,-2.125,0.5,-0.02099609,-0.01708984,1.010742,0.2558594,0.003417969,-0.5092773
1457,0.625,-1.8125,0.4375,-0.02099609,-0.005371094,1.022461,0.2558594,0.003417969,-0.5092773
1458,1.3125,-1.375,0.6875,-0.01708984,0.006347656,0.9990234,0.2558594,0.003417969,-0.5092773
1462,1,-1.1875,0.25,-0.03320313,0.01855469,1.014648,0.2558594,0.003417969,-0.5092773
1463,0.9375,-0.5,0.25,-0.009277344,0.002441406,1.010742,0.2558594,0.003417969,-0.5092773
1467,0.75,0.0625,-0.125,-0.009277344,0.02246094,1.014648,0.2558594,0.003417969,-0.5092773
1468,0.75,0.625,-0.375,-0.03710938,0.01855469,1.014648,0.2607422,0.005859375,-0.5170898
1472,0.75,1.1875,-0.5,-0.01708984,-0.005371094,1.010742,0.2607422,0.005859375,-0.5170898
1473,0.125,1.6875,-0.3125,0.005859375,0.01416016,0.9951172,0.2607422,0.005859375,-0.5170898
1477,-0.6875,1.875,-0.875,-0.01708984,-0.005371094,0.9912109,0.2558594,-0.008789063,-0.5117188
1478,-1.3125,2.3125,-0.9375,-0.009277344,0.002441406,1.006836,0.2558594,-0.008789063,-0.5117188
1482,-1.75,2.3125,-1.0625,-0.02539063,0.01025391,1.014648,0.2558594,-0.008789063,-0.5117188
1483,-1.6875,2.6875,-0.8125,-0.01708984,0.02246094,0.9951172,0.2558594,-0.008789063,-0.5117188
1487,-2.0625,2.75,-0.8125,-0.02539063,-0.005371094,0.9951172,0.2558594,-0.008789063,-0.5117188
1488,-3.125,3,-0.8125,-0.02539063,0.002441406,0.9790039,0.2558594,-0.008789063,-0.5117188
1492,-4.5,3.3125,-0.5,-0.02099609,0.01025391,0.9633789,0.2558594,-0.008789063,-0.5117188
1493,-5.625,3.9375,-0.5,-0.02099609,-0.005371094,0.9790039,0.2558594,-0.00390625,-0.5141602
1497,-6.1875,4.125,-0.5625,-0.009277344,0.01416016,1.006836,0.2558594,-0.00390625,-0.5141602
1498,-5.8125,4.3125,-0.8125,-0.02539063,0.02636719,0.9990234,0.2558594,-0.00390625,-0.5141602
1502,-5.5625,4.25,-0.875,-0.01708984,0.01025391,0.9990234,0.2529297,-0.001464844,-0.5141602
1503,-4.75,3.875,-0.5,-0.02929688,0.01025391,0.9833984,0.2529297,-0.001464844,-0.5141602
1507,-4.375,3.1875,-0.1875,-0.009277344,0.002441406,0.9873047,0.2529297,-0.001464844,-0.5141602
1508,-4,2.0625,0.0625,-0.01708984,0.006347656,0.9750977,0.2529297,-0.001464844,-0.5141602
1512,-4,1.1875,0.1875,-0.005371094,0.02636719,0.9912109,0.2607422,-0.00390625,-0.5117188
1513,-3.125,0.5,0.5625,-0.02929688,0.01025391,1.006836,0.2607422,-0.00390625,-0.5117188
1517,-2.0625,-0.375,0.8125,-0.02099609,-0.02099609,0.9951172,0.2607422,-0.00390625,-0.5117188
1518,-1.125,-0.75,0.75,-0.02539063,-0.01318359,0.9750977,0.2529297,-0.001464844,-0.5092773
1522,-1.375,-1.5625,0.875,-0.02539063,-0.009277344,0.9790039,0.2529297,-0.001464844,-0.5092773
1523,-1.6875,-2,0.6875,-0.03320313,0.01025391,1.006836,0.2529297,-0.001464844,-0.5092773
1527,-1.5,-2,0.625,-0.02539063,-0.009277344,1.010742,0.2529297,-0.001464844,-0.5092773
1528,-1.375,-2.75,0.375,-0.03320313,0.002441406,0.9750977,0.2529297,-0.001464844,-0.5092773
1532,-0.375,-2.9375,0.9375,-0.02929688,0.006347656,0.9790039,0.2529297,-0.001464844,-0.5092773
1533,0.6875,-3.75,1.3125,-0.02539063,0.002441406,1.010742,0.2529297,-0.001464844,-0.5092773
1537,1.6875,-4.1875,1.375,-0.02929688,0.006347656,0.9951172,0.2636719,-0.001464844,-0.5063477
1538,2.3125,-4.0625,1.5625,-0.02099609,0.006347656,0.9951172,0.2636719,-0.001464844,-0.5063477
1542,2.875,-3.8125,1.875,-0.02539063,0.006347656,0.9990234,0.2636719,-0.001464844,-0.5063477
1543,3.0625,-3.0625,1.6875,-0.02099609,0.006347656,0.9833984,0.2709961,0.003417969,-0.5117188
1547,2.125,-2.5,1.375,-0.01708984,0.01025391,0.9750977,0.2709961,0.003417969,-0.5117188
1548,0.0625,-2.3125,1.8125,-0.02099609,0.01025391,0.9990234,0.2709961,0.003417969,-0.5117188
1552,-0.8125,-2.0625,1.5625,-0.03320313,-0.01318359,1.026367,0.2709961,0.003417969,-0.5117188
1553,-1.375,-2.0625,1.625,-0.01318359,0.006347656,1.00293,0.2709961,0.003417969,-0.5117188
1557,-2.0625,-2.1875,1.5625,-0.02099609,-0.005371094,0.9833984,0.2709961,0.003417969,-0.5117188
1558,-2.75,-1.875,1.375,-0.009277344,0.006347656,0.9990234,0.2709961,0.003417969,-0.5117188
1562,-3.875,-1.75,1.3125,-0.01318359,0.01025391,0.9990234,0.2607422,0.01074219,-0.5092773
1564,-4.875,-1.8125,1.0625,-0.02539063,-0.005371094,0.9912109,0.2607422,0.01074219,-0.5092773
1568,-5.6875,-1.6875,0.9375,-0.01318359,0.006347656,1.010742,0.2607422,0.01074219,-0.5092773
1569,-5.5,-1.1875,1.3125,-0.04492188,-0.009277344,1.03418,0.2583008,0.005859375,-0.5170898
1573,-6.5,-1,0.9375,0.005859375,-0.005371094,1.010742,0.2583008,0.005859375,-0.5170898
1574,-7.0625,-0.5625,0.5625,-0.009277344,0.006347656,0.9873047,0.2583008,0.005859375,-0.5170898
1578,-7.125,-0.25,0.375,-0.001464844,0.01025391,1.00293,0.2583008,0.005859375,-0.5170898
1579,-7.5625,0.25,0,-0.01318359,0.03417969,1.049805,0.2583008,0.005859375,-0.5170898
1583,-7.3125,0.9375,0,-0.001464844,0.01025391,1.018555,0.2583008,0.005859375,-0.5170898
1584,-7.125,1.1875,0,-0.009277344,0.006347656,1.010742,0.2583008,0.005859375,-0.5170898
1588,-6.5625,1.0625,-0.375,-0.009277344,0.02246094,1.006836,0.2607422,0.0004882813,-0.5219727
1589,-5.9375,1,-0.1875,-0.01318359,0.002441406,0.9990234,0.2607422,0.0004882813,-0.5219727
1593,-5.75,0.125,0,-0.01708984,0.01025391,1.00293,0.2607422,0.0004882813,-0.5219727
1594,-5.3125,-0.6875,0,0.001953125,0.002441406,1.018555,0.2558594,0.003417969,-0.5063477
1598,-5.25,-1.125,0,-0.02099609,-0.009277344,0.9951172,0.2558594,0.003417969,-0.5063477
1599,-5.125,-1.5625,0.125,-0.02099609,-0.01318359,0.9912109,0.2558594,0.003417969,-0.5063477
1603,-4.5625,-1.125,0.4375,-0.03320313,-0.04101563,0.9912109,0.2558594,0.003417969,-0.5063477
1604,-4,-1.0625,0.4375,-0.02099609,-0.0009765625,1.03418,0.2583008,0.0004882813,-0.5117188
1608,-2.875,-0.75,0.6875,-0.01708984,0.02636719,1.010742,0.2583008,0.0004882813,-0.5117188
1609,-1.6875,-0.8125,0.9375,-0.02539063,0.01855469,0.9951172,0.2583008,0.0004882813,-0.5117188
1613,-0.9375,-0.8125,0.875,-0.01708984,-0.005371094,0.9873047,0.2558594,-0.001464844,-0.5092773
1614,-0.875,-0.5625,1.375,-0.03710938,0.01025391,1.010742,0.2558594,-0.001464844,-0.5092773
1618,-1,-0.625,1.5,-0.03320313,-0.005371094,0.9951172,0.2558594,-0.001464844,-0.5092773
1619,-1.375,-0.75,1.5,-0.02539063,-0.005371094,0.9951172,0.2607422,0.0004882813,-0.5092773
1623,-0.9375,-1.3125,1.5,-0.02539063,-0.02099609,0.9912109,0.2607422,0.0004882813,-0.5092773
1624,-0.5,-1.5,1.6875,-0.02929688,-0.01318359,0.9833984,0.2607422,0.0004882813,-0.5092773
1628,-0.625,-1.1875,1.3125,-0.03710938,-0.009277344,0.9951172,0.2607422,0.0004882813,-0.5092773
1629,-1.0625,-1.25,1.25,-0.02099609,-0.005371094,0.9951172,0.2558594,0.005859375,-0.5092773
1633,-1.8125,-0.6875,1.5625,-0.02539063,-0.009277344,1.010742,0.2558594,0.005859375,-0.5092773
1634,-2.625,-0.125,1.375,-0.01708984,-0.02929688,0.9790039,0.2558594,0.005859375,-0.5092773
1638,-3.5,-0.125,1.4375,-0.04101563,-0.02099609,1.00293,0.2558594,0.003417969,-0.5219727
1639,-4,-0.0625,1.1875,-0.001464844,-0.0009765625,0.9912109,0.2558594,0.003417969,-0.5219727
1643,-4.3125,-0.6875,1.0625,-0.005371094,-0.009277344,0.9951172,0.2558594,0.003417969,-0.5219727
1644,-4.25,-1.3125,0.875,-0.01318359,0.006347656,1.010742,0.2739258,0.008300781,-0.5141602
1648,-4.4375,-1.6875,0.75,-0.01318359,0.01025391,0.9990234,0.2739258,0.008300781,-0.5141602
1649,-4.5625,-1.8125,0.4375,-0.005371094,-0.0009765625,1.014648,0.2739258,0.008300781,-0.5141602
1653,-4.75,-1.6875,0.1875,-0.02099609,-0.01318359,1.010742,0.2739258,0.008300781,-0.5141602
1654,-4.5,-1.75,0.5,-0.02099609,0.002441406,1.022461,0.2451172,0.0004882813,-0.5063477
1658,-3.9375,-1.4375,-0.0625,-0.01708984,-0.01318359,1.00293,0.2451172,0.0004882813,-0.5063477
1659,-2.4375,-1.25,-0.0625,-0.04882813,-0.0009765625,1.014648,0.2451172,0.0004882813,-0.5063477
1663,-1.75,-1.0625,-0.25,-0.001464844,0.006347656,1.010742,0.2709961,0.01074219,-0.5092773
1664,-1.5,-1.125,-0.5,-0.02099609,-0.0009765625,0.9912109,0.2709961,0.01074219,-0.5092773
1668,-1.4375,-1.25,-0.375,-0.02539063,-0.005371094,0.9990234,0.2709961,0.01074219,-0.5092773
1669,-1.5,-0.875,-0.5,-0.03320313,-0.0009765625,1.026367,0.2709961,0.01074219,-0.5092773
1673,-1.6875,-0.75,-0.1875,-0.02539063,-0.02099609,1.010742,0.2709961,0.01074219,-0.5092773
1674,-2.3125,-1,0.0625,-0.04101563,0.01025391,0.9672852,0.2709961,0.01074219,-0.5092773
1678,-3,-1.4375,0.25,-0.02539063,-0.005371094,0.9951172,0.2709961,0.01074219,-0.5092773
1679,-3.5625,-1.9375,-0.125,-0.01708984,-0.01318359,0.9750977,0.2661133,0.005859375,-0.5117188
1683,-3.625,-2.0625,-0.375,-0.01318359,-0.009277344,0.9873047,0.2661133,0.005859375,-0.5117188
1684,-3.5625,-1.375,-0.125,-0.005371094,-0.009277344,0.9912109,0.2661133,0.005859375,-0.5117188
1688,-2.875,-1.125,0,-0.03320313,-0.01318359,0.9873047,0.2583008,0.008300781,-0.5092773
1689,-2.5625,-0.8125,0.0625,-0.02099609,-0.01318359,1.010742,0.2583008,0.008300781,-0.5092773
1693,-2.9375,-0.6875,0.0625,-0.01318359,-0.03320313,1.00293,0.2583008,0.008300781,-0.5092773
1694,-2.9375,-0.5,0.1875,-0.01708984,0.002441406,0.9951172,0.2583008,0.008300781,-0.5092773
1698,-2.625,-0.0625,0.0625,-0.02099609,-0.005371094,0.9790039,0.2529297,0.005859375,-0.5170898
1699,-2.8125,-0.1875,0.125,-0.009277344,0.002441406,0.9990234,0.2529297,0.005859375,-0.5170898
1703,-2.3125,-0.375,0.5625,-0.02539063,-0.01318359,0.9833984,0.2529297,0.005859375,-0.5170898
1704,-1.125,-0.75,0.5,-0.02929688,-0.01318359,1.00293,0.2529297,0.008300781,-0.5117188
1708,0,-1.3125,0.875,-0.009277344,0.002441406,1.010742,0.2529297,0.008300781,-0.5117188
1709,0.4375,-1.875,1.25,-0.01708984,-0.009277344,0.9990234,0.2529297,0.008300781,-0.5117188
1713,0.3125,-2.375,1.375,-0.01318359,-0.009277344,0.9873047,0.2607422,0.008300781,-0.5063477
1714,0.375,-2.75,1.5625,-0.01318359,-0.005371094,1.010742,0.2607422,0.008300781,-0.5063477
1718,0.875,-3.0625,1.5625,-0.02099609,-0.0009765625,0.9912109,0.2607422,0.008300781,-0.5063477
1719,0.875,-3.0625,1.625,-0.01708984,-0.01318359,0.9951172,0.2607422,0.008300781,-0.5063477
1723,0.3125,-3.6875,2.0625,-0.01708984,-0.01318359,0.9990234,0.2529297,0.008300781,-0.5117188
1725,0,-4.0625,1.875,-0.02099609,-0.009277344,0.9873047,0.2529297,0.008300781,-0.5117188
1729,-0.4375,-4.125,1.75,0.001953125,-0.009277344,1.00293,0.2529297,0.008300781,-0.5117188
1730,-0.9375,-4.125,1.5,-0.02539063,-0.01708984,1.00293,0.2558594,0.003417969,-0.5117188
1734,-0.875,-3.5625,1.625,-0.01708984,-0.01318359,1.010742,0.2558594,0.003417969,-0.5117188
1735,-0.625,-2.875,1.3125,-0.001464844,-0.005371094,1.010742,0.2558594,0.003417969,-0.5117188
1739,-0.4375,-2.25,0.75,0.01416016,-0.01318359,1.014648,0.2558594,0.003417969,-0.5117188
1740,-0.25,-2.1875,0.4375,-0.005371094,-0.009277344,1.010742,0.2558594,0.003417969,-0.5117188
1744,0,-1.9375,0.0625,0.01025391,-0.01318359,0.9873047,0.2558594,0.003417969,-0.5117188
1745,-0.5625,-2.125,0.125,0.005859375,-0.02490234,0.9790039,0.2558594,0.003417969,-0.5117188
1749,-0.9375,-2.25,0,0.01416016,-0.02099609,0.9951172,0.2661133,0.0004882813,-0.5092773
1750,-2,-2.25,-0.25,0.001953125,-0.01708984,1.00293,0.2661133,0.0004882813,-0.5092773
1754,-2.625,-2.125,-0.5625,-0.001464844,-0.02099609,0.9951172,0.2661133,0.0004882813,-0.5092773
1755,-2.875,-1.6875,-0.6875,0.01025391,0.002441406,1.010742,0.2739258,-0.00390625,-0.5092773
1759,-2.75,-1.375,-0.875,-0.02099609,-0.02490234,0.9951172,0.2739258,-0.00390625,-0.5092773
1760,-2.75,-1.625,-0.8125,-0.005371094,-0.02099609,0.9833984,0.2739258,-0.00390625,-0.5092773
1764,-3.125,-1.5,-0.625,0.01025391,-0.03710938,0.9951172,0.2739258,-0.00390625,-0.5092773
1765,-3,-1.1875,-0.375,-0.005371094,-0.005371094,0.9790039,0.2739258,-0.00390625,-0.5092773
1769,-2.25,-1.1875,-0.125,-0.009277344,-0.01708984,0.9873047,0.2739258,-0.00390625,-0.5092773
1770,-0.9375,-0.75,0.125,-0.02929688,-0.009277344,0.9951172,0.2739258,-0.00390625,-0.5092773
1774,0.1875,-0.4375,0.5,-0.02099609,-0.01318359,1.00293,0.2558594,0.003417969,-0.5195313
1775,0.375,0,0.8125,-0.02539063,-0.01318359,1.010742,0.2558594,0.003417969,-0.5195313
1779,0.1875,0,1.25,-0.01708984,-0.0009765625,0.9951172,0.2558594,0.003417969,-0.5195313
1780,-0.8125,-0.3125,1.8125,-0.009277344,-0.01318359,0.9912109,0.2636719,0.008300781,-0.5195313
1784,-1.8125,-0.375,2.3125,0.01025391,-0.02490234,0.9833984,0.2636719,0.008300781,-0.5195313
1785,-2.125,-0.875,1.9375,0.001953125,-0.02099609,0.9750977,0.2636719,0.008300781,-0.5195313
1789,-2.125,-1.625,2.25,-0.009277344,-0.01318359,0.9594727,0.2636719,0.008300781,-0.5195313
1790,-1.3125,-2.4375,2.375,0.001953125,-0.005371094,1.006836,0.2583008,0.005859375,-0.5092773
1794,-0.625,-2.75,2.5625,-0.02539063,-0.01708984,0.9951172,0.2583008,0.005859375,-0.5092773
1795,0,-2.9375,2.1875,-0.02099609,0.002441406,1.00293,0.2583008,0.005859375,-0.5092773
1799,0,-2.6875,2.0625,0.001953125,-0.009277344,1.00293,0.2583008,0.008300781,-0.5063477
1800,0.0625,-2.8125,1.9375,-0.01318359,-0.009277344,1.010742,0.2583008,0.008300781,-0.5063477
1804,0,-2.5625,1.5625,-0.001464844,-0.005371094,1.00293,0.2583008,0.008300781,-0.5063477
1805,0.25,-2.3125,0.875,-0.001464844,-0.005371094,0.9951172,0.2607422,0.0004882813,-0.5170898
1809,0.9375,-1.8125,0.6875,-0.001464844,0.002441406,1.041992,0.2607422,0.0004882813,-0.5170898
1810,1.5625,-0.9375,0,-0.005371094,-0.005371094,1.018555,0.2607422,0.0004882813,-0.5170898
1814,2.125,-0.375,-0.1875,-0.02099609,0.02246094,1.00293,0.2607422,0.0004882813,-0.5170898
1815,2.25,0.5625,-0.9375,-0.03320313,-0.0009765625,1.026367,0.2558594,0.008300781,-0.5141602
1819,1.875,1.625,-1.125,-0.02929688,-0.02099609,1.00293,0.2558594,0.008300781,-0.5141602
1820,0.875,2.25,-1.4375,-0.02929688,0.002441406,1.010742,0.2558594,0.008300781,-0.5141602
1824,-0.4375,2.4375,-1.875,-0.01318359,-0.02099609,1.00293,0.2607422,0.005859375,-0.5092773
1825,-1.4375,2.875,-2.3125,-0.02099609,-0.02099609,0.9833984,0.2607422,0.005859375,-0.5092773
1829,-2,2.5,-2.1875,-0.01708984,-0.01318359,0.9833984,0.2607422,0.005859375,-0.5092773
1830,-2.9375,2.125,-1.75,-0.01318359,-0.01318359,0.9990234,0.2529297,0.0004882813,-0.5039063
1834,-3.8125,1.875,-1.4375,-0.02539063,-0.009277344,0.9990234,0.2529297,0.0004882813,-0.5039063
1835,-4.3125,1.25,-1.3125,-0.02539063,-0.02099609,1.010742,0.2529297,0.0004882813,-0.5039063
1839,-3.875,0.875,-0.875,-0.001464844,-0.01318359,0.9873047,0.2529297,0.0004882813,-0.5039063
1840,-2.75,0.25,-0.3125,-0.01318359,-0.0009765625,1.00293,0.2583008,0.01074219,-0.5141602
1844,-2.375,-0.1875,-0.1875,-0.01318359,-0.009277344,0.9833984,0.2583008,0.01074219,-0.5141602
1845,-2.1875,-0.875,0,-0.03320313,-0.02929688,0.9750977,0.2583008,0.01074219,-0.5141602
1849,-1.9375,-1.25,0.25,-0.01708984,-0.02490234,1.010742,0.2558594,0.01074219,-0.5063477
1850,-1.25,-1.5625,0.3125,0.001953125,-0.01318359,0.9833984,0.2558594,0.01074219,-0.5063477
1854,0.1875,-1.5625,0.625,-0.02539063,-0.02490234,0.9951172,0.2558594,0.01074219,-0.5063477
1855,1.4375,-1.8125,0.75,-0.02099609,-0.02099609,1.010742,0.2558594,0.01074219,-0.5063477
1859,2.25,-2.125,0.9375,0.01025391,-0.02490234,1.00293,0.2558594,0.01074219,-0.5063477
1860,2.75,-2.375,1.1875,-0.02099609,-0.03710938,0.9833984,0.2558594,0.01074219,-0.5063477
1864,1.9375,-2.3125,1,-0.03320313,-0.02929688,1.010742,0.2558594,0.01074219,-0.5063477
1865,1,-1.625,1,-0.005371094,-0.02099609,1.014648,0.2607422,0.005859375,-0.5092773
1869,0.6875,-1.1875,0.25,-0.01708984,-0.009277344,0.9873047,0.2607422,0.005859375,-0.5092773
1870,1.1875,-0.3125,0.0625,-0.02539063,-0.01708984,1.00293,0.2607422,0.005859375,-0.5092773
1874,1.5,0.125,-0.0625,-0.005371094,-0.02929688,0.9750977,0.2451172,0.01074219,-0.5063477
1875,1.8125,0.5625,-0.0625,-0.009277344,-0.02490234,0.9951172,0.2451172,0.01074219,-0.5063477
1879,1.625,1.375,-0.3125,-0.02539063,-0.005371094,1.006836,0.2451172,0.01074219,-0.5063477
1880,1.1875,1.4375,-0.6875,-0.005371094,-0.02099609,0.9951172,0.2451172,0.01074219,-0.5063477
1884,0.875,1.5625,-0.875,-0.005371094,-0.009277344,1.00293,0.2558594,-0.006347656,-0.5063477
1886,0.4375,1.6875,-1,-0.005371094,-0.01708984,0.9912109,0.2558594,-0.006347656,-0.5063477
1890,0.125,1.875,-1.25,-0.03320313,-0.009277344,1.010742,0.2558594,-0.006347656,-0.5063477
1891,-0.125,1.8125,-1.375,-0.02099609,-0.009277344,1.010742,0.2558594,0.008300781,-0.5117188
1895,-0.1875,2,-1.8125,0.001953125,0.01416016,1.00293,0.2558594,0.008300781,-0.5117188
1896,-0.0625,2.6875,-1.875,-0.01708984,-0.005371094,1.014648,0.2558594,0.008300781,-0.5117188
1900,0.0625,2.9375,-1.75,0.01025391,-0.02490234,0.9951172,0.2607422,0.01074219,-0.5117188
1901,0.6875,3.25,-1.875,-0.009277344,-0.01318359,0.9990234,0.2607422,0.01074219,-0.5117188
1905,0.8125,3.3125,-2,-0.02539063,-0.005371094,0.9912109,0.2607422,0.01074219,-0.5117188
1906,0.4375,3.625,-1.625,-0.03320313,-0.01708984,1.00293,0.2607422,0.01074219,-0.5117188
1910,-0.4375,3.75,-1.4375,-0.02929688,-0.02099609,0.9833984,0.2480469,0.015625,-0.5092773
1911,-1.625,3.75,-0.875,-0.03710938,-0.02099609,0.9951172,0.2480469,0.015625,-0.5092773
1915,-1.9375,3.0625,-0.8125,-0.02099609,-0.01318359,1.010742,0.2480469,0.015625,-0.5092773
1916,-1.6875,2.4375,-0.3125,-0.005371094,-0.04492188,1.006836,0.2583008,0.015625,-0.5092773
1920,-1.3125,1.375,-0.3125,-0.01708984,-0.03710938,0.9990234,0.2583008,0.015625,-0.5092773
1921,-1.25,0.8125,-0.1875,0.001953125,-0.03320313,1.010742,0.2583008,0.015625,-0.5092773
1925,-0.75,0.25,0,0.01025391,-0.01318359,0.9873047,0.2607422,-0.008789063,-0.5092773
1926,-0.625,-0.3125,0.375,-0.005371094,-0.01318359,0.9873047,0.2607422,-0.008789063,-0.5092773
1930,-0.1875,-1.25,0.125,-0.02099609,-0.005371094,1.018555,0.2607422,-0.008789063,-0.5092773
1931,0.125,-1.8125,0,-0.009277344,-0.009277344,0.9912109,0.2607422,-0.008789063,-0.5092773
1935,0,-2.5625,-0.1875,-0.01318359,-0.02490234,1.014648,0.2685547,0.005859375,-0.5219727
1936,0.125,-2.8125,-0.125,-0.01708984,-0.0009765625,1.010742,0.2685547,0.005859375,-0.5219727
1940,-0.1875,-3,-0.1875,-0.01318359,-0.01708984,1.00293,0.2685547,0.005859375,-0.5219727
1941,-0.75,-3.1875,0,-0.03710938,-0.02490234,0.9951172,0.2607422,0.01074219,-0.5117188
1945,-1.1875,-3.625,0,-0.02099609,-0.03710938,1.00293,0.2607422,0.01074219,-0.5117188
1946,-0.6875,-3.6875,0,-0.02099609,-0.02099609,1.014648,0.2607422,0.01074219,-0.5117188
1950,-0.125,-3.5,-0.1875,-0.02539063,-0.01708984,1.010742,0.2607422,0.01074219,-0.5117188
1951,0.3125,-3.6875,-0.1875,-0.01318359,-0.009277344,1.00293,0.2607422,0.01074219,-0.5117188
1955,0.125,-3.4375,-0.25,-0.01708984,-0.005371094,0.9912109,0.2607422,0.01074219,-0.5117188
1956,0.25,-3.25,-0.25,-0.01318359,-0.005371094,1.006836,0.2607422,0.01074219,-0.5117188
1960,0.6875,-2.875,-0.3125,-0.02929688,-0.009277344,1.00293,0.2480469,0.01318359,-0.5141602
1961,1.5625,-2.875,0,-0.02539063,-0.02490234,1.00293,0.2480469,0.01318359,-0.5141602
1965,2.125,-2.75,0.1875,-0.02929688,-0.01318359,1.010742,0.2480469,0.01318359,-0.5141602
1966,2.25,-2.5625,0.3125,-0.001464844,-0.005371094,1.010742,0.2583008,0.02294922,-0.5170898
1970,2.0625,-2.9375,0.4375,-0.005371094,-0.02099609,1.018555,0.2583008,0.02294922,-0.5170898
1971,1.375,-2.75,0.375,-0.005371094,-0.02929688,1.00293,0.2583008,0.02294922,-0.5170898
1975,0.5625,-2.4375,0.625,-0.01318359,-0.01708984,0.9912109,0.2583008,0.02294922,-0.5170898
1976,-0.375,-1.875,0.6875,-0.01318359,-0.0009765625,1.010742,0.2583008,0.01074219,-0.5092773
1980,-1.5,-1.375,0.8125,-0.005371094,-0.01708984,1.010742,0.2583008,0.01074219,-0.5092773
1981,-1.75,-1,0.75,-0.009277344,-0.02929688,0.9990234,0.2583008,0.01074219,-0.5092773
1985,-1.3125,-1.125,0.75,-0.01708984,-0.01708984,1.010742,0.2480469,0.005859375,-0.5141602
1986,-0.0625,-0.625,0.6875,-0.01318359,-0.01708984,1.026367,0.2480469,0.005859375,-0.5141602
1990,0.0625,-0.6875,0.625,-0.01708984,-0.01318359,1.010742,0.2480469,0.005859375,-0.5141602
1991,0.125,-0.4375,0.25,-0.02099609,-0.009277344,1.014648,0.2583008,0.008300781,-0.5141602
1995,0.0625,-0.3125,0.125,-0.01318359,-0.01318359,0.9990234,0.2583008,0.008300781,-0.5141602
1996,0.125,0.3125,-0.3125,-0.01318359,-0.01708984,0.9990234,0.2583008,0.008300781,-0.5141602
2000,-0.0625,0.9375,-0.625,-0.009277344,0.006347656,1.014648,0.2583008,0.008300781,-0.5141602
2001,-0.125,1.625,-0.6875,0.005859375,-0.0009765625,1.010742,0.2558594,0.008300781,-0.5117188
2005,-0.5625,2.0625,-0.875,-0.001464844,-0.0009765625,0.9990234,0.2558594,0.008300781,-0.5117188
2006,-1,2.5,-1,-0.01708984,-0.0009765625,0.9912109,0.2558594,0.008300781,-0.5117188
2010,-1.25,2.75,-0.75,-0.001464844,-0.02099609,0.9990234,0.2583008,0.01074219,-0.5063477
2011,-2.5625,3.0625,-0.8125,0.005859375,-0.01708984,0.9990234,0.2583008,0.01074219,-0.5063477
2015,-3.6875,2.8125,-1.0625,0.005859375,-0.009277344,1.006836,0.2583008,0.01074219,-0.5063477
2016,-3.875,2.4375,-0.6875,-0.005371094,-0.02490234,1.00293,0.2607422,0.005859375,-0.5063477
2020,-2.875,1.6875,-0.9375,-0.001464844,-0.02929688,0.9833984,0.2607422,0.005859375,-0.5063477
2021,-1.5625,1.3125,-0.5625,-0.01318359,-0.01708984,1.010742,0.2607422,0.005859375,-0.5063477
2025,0,0.8125,-0.375,0.01025391,-0.03710938,1.010742,0.2607422,0.005859375,-0.5063477
2026,0.75,0.875,-0.25,-0.01708984,-0.0009765625,1.014648,0.2583008,0.008300781,-0.5195313
2030,1.25,0.8125,-0.1875,-0.01318359,-0.005371094,1.014648,0.2583008,0.008300781,-0.5195313
2031,2.125,1.125,0.1875,-0.009277344,-0.02099609,0.9951172,0.2583008,0.008300781,-0.5195313
2035,3.1875,1,0.6875,-0.02539063,-0.005371094,1.026367,0.2607422,0.008300781,-0.5092773
2036,4.5625,1.125,1.0625,-0.01318359,-0.02099609,0.9951172,0.2607422,0.008300781,-0.5092773
2040,4.125,0.75,1.375,-0.009277344,-0.03710938,0.9873047,0.2607422,0.008300781,-0.5092773
2041,3.1875,0.25,1.6875,-0.01708984,-0.02929688,0.9790039,0.2607422,0.008300781,-0.5092773
2045,1.75,0,2.125,-0.02539063,-0.01318359,0.9833984,0.2607422,0.008300781,-0.5092773
2048,1.0625,-0.5,2.3125,-0.01318359,-0.02929688,0.9672852,0.2607422,0.008300781,-0.5092773
2052,0.25,-1.5,2.5625,-0.005371094,-0.02490234,0.9912109,0.2607422,0.008300781,-0.5092773
2053,0.3125,-1.8125,2.4375,-0.009277344,0.01416016,0.9912109,0.2583008,0.01074219,-0.5170898
2057,0.125,-1.625,2.375,-0.02539063,-0.01708984,0.9790039,0.2583008,0.01074219,-0.5170898
2058,-0.125,-1.8125,2.0625,-0.005371094,-0.009277344,1.010742,0.2583008,0.01074219,-0.5170898
2062,-0.125,-1.9375,1.8125,-0.02099609,-0.009277344,1.00293,0.2504883,0.008300781,-0.5170898
2063,0.0625,-2,1.9375,0.005859375,-0.02099609,1.010742,0.2504883,0.008300781,-0.5170898
2067,0.4375,-1.625,1.5,-0.02099609,-0.005371094,0.9990234,0.2504883,0.008300781,-0.5170898
2068,0.875,-1.5,1,-0.005371094,-0.01318359,1.014648,0.2504883,0.008300781,-0.5170898
2072,1.5,-1.25,0.4375,-0.009277344,-0.009277344,1.00293,0.2504883,0.008300781,-0.5170898
2073,1.8125,-1.25,0.3125,-0.02929688,0.002441406,0.9990234,0.2504883,0.008300781,-0.5170898
2077,2.125,-1.1875,-0.0625,0.001953125,-0.01318359,0.9990234,0.2504883,0.008300781,-0.5170898
2078,1.9375,-1.1875,-0.75,-0.009277344,-0.005371094,0.9912109,0.2607422,0.01074219,-0.5092773
2082,1.8125,-0.8125,-0.8125,-0.005371094,-0.02099609,0.9951172,0.2607422,0.01074219,-0.5092773
2083,1.4375,-0.0625,-0.9375,-0.01708984,0.01416016,1.00293,0.2607422,0.01074219,-0.5092773
2087,0.3125,0.75,-0.9375,-0.02099609,0.002441406,0.9912109,0.2583008,0.015625,-0.5141602
2088,0.1875,0.8125,-0.875,-0.04101563,-0.0009765625,1.014648,0.2583008,0.015625,-0.5141602
2092,-0.125,0.875,-1.375,-0.01708984,-0.005371094,0.9873047,0.2583008,0.015625,-0.5141602
2093,0.0625,1,-1.375,-0.009277344,-0.02099609,0.9990234,0.2583008,0.015625,-0.5141602
2097,-0.375,1.375,-1.5,-0.03710938,-0.02099609,0.9912109,0.2661133,0.01074219,-0.5170898
2098,-1.3125,1.75,-1.0625,-0.02099609,-0.01318359,0.9873047,0.2661133,0.01074219,-0.5170898
2102,-2.0625,2,-1.125,-0.01318359,-0.009277344,0.9833984,0.2661133,0.01074219,-0.5170898
2103,-2.25,2.3125,-1.3125,0.001953125,-0.03320313,0.9951172,0.2636719,0.01074219,-0.5092773
2107,-1.375,2.0625,-1.4375,-0.02539063,-0.005371094,0.9990234,0.2636719,0.01074219,-0.5092773
2108,-0.1875,2.1875,-1.5,-0.01708984,0.006347656,0.9990234,0.2636719,0.01074219,-0.5092773
2112,0.25,1.9375,-1.1875,-0.02929688,-0.01318359,1.014648,0.2607422,0.0004882813,-0.5117188
2113,0.625,1.5,-0.875,-0.01318359,-0.02099609,0.9833984,0.2607422,0.0004882813,-0.5117188
2117,1,1.1875,-0.75,-0.01708984,-0.02929688,0.9833984,0.2607422,0.0004882813,-0.5117188
2118,1.625,0.9375,-0.1875,-0.03320313,-0.009277344,0.9912109,0.2607422,0.0004882813,-0.5117188
2122,1.9375,0.875,0,-0.04101563,-0.02099609,0.9750977,0.2607422,0.003417969,-0.5141602
2123,1.5,0.8125,0.5625,-0.01708984,-0.02099609,0.9790039,0.2607422,0.003417969,-0.5141602
2127,1.75,0.4375,0.875,-0.02929688,-0.01708984,0.9790039,0.2607422,0.003417969,-0.5141602
2128,2.4375,-0.25,1.0625,-0.02099609,-0.005371094,0.9873047,0.2558594,0.008300781,-0.5141602
2132,3.0625,-0.875,1.8125,-0.03320313,0.006347656,0.9912109,0.2558594,0.008300781,-0.5141602
2133,3.4375,-1.6875,1.8125,-0.01708984,-0.01708984,0.9711914,0.2558594,0.008300781,-0.5141602
2137,3.6875,-2.25,1.8125,-0.01318359,-0.02490234,1.010742,0.2558594,0.008300781,-0.5141602
2138,3.875,-2.875,2.0625,-0.009277344,-0.02490234,0.9790039,0.2558594,0.008300781,-0.5141602
2142,4.5,-3.25,1.8125,-0.01708984,-0.005371094,0.9912109,0.2558594,0.008300781,-0.5141602
2143,5.6875,-3.75,1.875,-0.03710938,-0.005371094,0.9990234,0.2558594,0.008300781,-0.5141602
2147,6.4375,-4.3125,1.75,-0.01708984,-0.009277344,0.9873047,0.2504883,0.003417969,-0.5141602
2148,6.5625,-4.75,1.5625,-0.009277344,-0.009277344,1.006836,0.2504883,0.003417969,-0.5141602
2152,6.125,-4.9375,1.3125,-0.02539063,-0.01318359,0.9912109,0.2504883,0.003417969,-0.5141602
2153,5.1875,-4.4375,0.875,-0.009277344,-0.009277344,1.010742,0.2504883,0.005859375,-0.5219727
2157,3.6875,-4.375,0.4375,0.001953125,-0.0009765625,1.006836,0.2504883,0.005859375,-0.5219727
2158,2.4375,-4,-0.1875,-0.01318359,-0.005371094,0.9951172,0.2504883,0.005859375,-0.5219727
2162,1.9375,-3.5625,-0.6875,-0.005371094,-0.005371094,0.9990234,0.2504883,0.005859375,-0.5219727
2163,1.8125,-3,-1.1875,-0.005371094,0.01025391,1.006836,0.2529297,0.01074219,-0.5117188
2167,1.4375,-2.625,-1.75,-0.01318359,-0.009277344,1.030273,0.2529297,0.01074219,-0.5117188
2168,0.6875,-2.0625,-2.5,-0.01708984,0.002441406,0.9990234,0.2529297,0.01074219,-0.5117188
2172,0,-1.625,-2.75,-0.005371094,0.002441406,1.010742,0.2529297,0.005859375,-0.5141602
2173,-1.1875,-0.9375,-3,-0.01708984,-0.005371094,1.010742,0.2529297,0.005859375,-0.5141602
2177,-1.5625,-0.625,-3.0625,-0.005371094,-0.02929688,1.010742,0.2529297,0.005859375,-0.5141602
2178,-1.6875,-0.1875,-3.3125,-0.01708984,-0.0009765625,1.018555,0.2504883,0.008300781,-0.5117188
2182,-1.0625,0.3125,-3.125,0.001953125,-0.02490234,1.026367,0.2504883,0.008300781,-0.5117188
2183,-0.375,0.9375,-2.875,-0.009277344,-0.01318359,1.026367,0.2504883,0.008300781,-0.5117188
2187,0.125,1.625,-2.6875,-0.005371094,-0.02099609,1.014648,0.2504883,0.008300781,-0.5117188
2188,0.8125,2.0625,-2.1875,-0.009277344,-0.02929688,0.9873047,0.2504883,-0.001464844,-0.5092773
2192,1.5625,2.125,-1.4375,0.001953125,-0.009277344,0.9833984,0.2504883,-0.001464844,-0.5092773
2193,2.5,1.8125,-1,-0.009277344,-0.01318359,0.9990234,0.2504883,-0.001464844,-0.5092773
2197,3.6875,1.3125,-0.5,-0.005371094,-0.009277344,1.010742,0.2558594,0.008300781,-0.5141602
2198,4.25,1.4375,-0.25,-0.009277344,-0.01318359,1.018555,0.2558594,0.008300781,-0.5141602
2202,4.25,1,0.0625,0.005859375,-0.01708984,1.00293,0.2558594,0.008300781,-0.5141602
2203,3.625,1.0625,0.5,0.001953125,-0.01708984,0.9951172,0.2451172,0.003417969,-0.5141602
2207,2.625,1.125,0.125,0.01025391,0.006347656,1.010742,0.2451172,0.003417969,-0.5141602
2209,2.4375,1.4375,0.5,-0.01318359,-0.005371094,1.014648,0.2451172,0.003417969,-0.5141602
2213,2.4375,1.75,0.25,-0.01318359,-0.01318359,0.9990234,0.2451172,0.003417969,-0.5141602
2214,2.75,2.25,0.125,-0.01318359,0.01416016,1.010742,0.2504883,0.01074219,-0.5092773
2218,2.75,2.8125,0,-0.001464844,0.006347656,1.018555,0.2504883,0.01074219,-0.5092773
2219,2.1875,3.9375,-0.3125,-0.009277344,-0.005371094,1.026367,0.2504883,0.01074219,-0.5092773
2223,1.5625,4.625,-1,-0.009277344,0.01855469,0.9990234,0.2583008,0.005859375,-0.5117188
2224,0.75,5.75,-2.0625,-0.01708984,-0.009277344,0.9990234,0.2583008,0.005859375,-0.5117188
2228,0.75,6.375,-2.25,-0.02539063,0.006347656,1.014648,0.2583008,0.005859375,-0.5117188
2229,0.9375,7.25,-2.625,-0.03320313,-0.0009765625,1.006836,0.2583008,0.005859375,-0.5117188
2233,1.375,7.5,-2.5625,-0.02539063,0.01416016,1.00293,0.2583008,0.005859375,-0.5117188
2234,1.4375,7.75,-2.8125,-0.005371094,-0.0009765625,0.9912109,0.2583008,0.005859375,-0.5117188
2238,1.25,7.4375,-3.0625,-0.001464844,-0.01708984,1.010742,0.2583008,0.005859375,-0.5117188
2239,1.3125,6.875,-3.0625,-0.04101563,0.01025391,1.010742,0.2558594,0.003417969,-0.5141602
2243,0.75,6.1875,-2.9375,-0.02539063,-0.01708984,0.9790039,0.2558594,0.003417969,-0.5141602
2244,0.5625,5.125,-2.3125,-0.03320313,-0.005371094,0.9990234,0.2558594,0.003417969,-0.5141602
2248,0.75,4.4375,-1.75,0.01025391,-0.0009765625,0.9633789,0.2607422,-0.01123047,-0.5063477
2249,1.3125,3.25,-1.1875,-0.01318359,-0.009277344,0.9594727,0.2607422,-0.01123047,-0.5063477
2253,1.3125,2.125,-1.125,-0.01708984,-0.03320313,0.9711914,0.2607422,-0.01123047,-0.5063477
2254,1.125,0.5,-0.625,-0.009277344,-0.005371094,0.9790039,0.2607422,-0.01123047,-0.5063477
2258,0.9375,-0.875,-0.4375,-0.02539063,-0.02099609,0.9833984,0.2607422,-0.01123047,-0.5063477
2259,1.5,-1.75,-0.0625,0.001953125,-0.01708984,0.9951172,0.2607422,-0.01123047,-0.5063477
2263,1.25,-2.75,0.625,0.001953125,-0.01708984,0.9790039,0.2607422,-0.01123047,-0.5063477
2264,0.1875,-4.3125,0.75,-0.001464844,-0.01318359,0.9833984,0.2529297,0.003417969,-0.5117188
2268,-0.6875,-5.5,1.4375,-0.009277344,-0.02490234,0.9711914,0.2529297,0.003417969,-0.5117188
2269,-1.4375,-6.625,1.625,0.005859375,-0.01318359,0.9833984,0.2529297,0.003417969,-0.5117188
2273,-1.375,-7.0625,1.5,-0.001464844,-0.03320313,0.9750977,0.2529297,0.003417969,-0.5092773
2274,-0.6875,-6.875,1.5,-0.01708984,-0.02099609,1.00293,0.2529297,0.003417969,-0.5092773
2278,-0.75,-5.625,1.375,-0.02099609,-0.005371094,0.9873047,0.2529297,0.003417969,-0.5092773
2279,-1.625,-4.3125,1.25,-0.03710938,0.006347656,1.014648,0.2529297,0.003417969,-0.5092773
2283,-2.1875,-3.125,1.1875,-0.005371094,-0.02099609,0.9951172,0.2583008,-0.001464844,-0.5117188
2284,-2.3125,-2.25,0.8125,-0.009277344,0.01025391,1.010742,0.2583008,-0.001464844,-0.5117188
2288,-1.875,-1.125,0.25,-0.005371094,0.002441406,1.014648,0.2583008,-0.001464844,-0.5117188
2289,-0.8125,0,0.4375,-0.01318359,0.006347656,0.9912109,0.2607422,0.0004882813,-0.5117188
2293,-0.0625,0.625,-0.3125,-0.005371094,0.01416016,1.026367,0.2607422,0.0004882813,-0.5117188
2294,0.4375,1.4375,-0.625,-0.005371094,-0.005371094,1.018555,0.2607422,0.0004882813,-0.5117188
2298,0.375,2.25,-0.5,-0.01318359,-0.01708984,1.018555,0.2607422,0.01318359,-0.5117188
2299,0.9375,2.6875,-0.8125,-0.009277344,-0.02099609,0.9833984,0.2607422,0.01318359,-0.5117188
2303,0.625,2.75,-0.8125,-0.005371094,-0.02929688,0.9912109,0.2607422,0.01318359,-0.5117188
2304,0.625,3,-1.0625,-0.01708984,0.002441406,1.014648,0.2607422,0.01318359,-0.5117188
2308,0.375,3,-0.625,-0.01708984,-0.005371094,0.9833984,0.2402344,0.008300781,-0.5273438
2309,-0.25,2.8125,-0.5,-0.01318359,-0.005371094,0.9951172,0.2402344,0.008300781,-0.5273438
2313,-1.0625,2.75,-0.625,-0.01708984,0.01025391,0.9833984,0.2402344,0.008300781,-0.5273438
2314,-0.8125,2.5625,-0.3125,-0.01318359,0.002441406,0.9951172,0.2583008,0.008300781,-0.5117188
2318,0,2.5,-0.25,-0.01318359,-0.0009765625,0.9951172,0.2583008,0.008300781,-0.5117188
2319,1,2.8125,-0.125,-0.001464844,0.01025391,1.00293,0.2583008,0.008300781,-0.5117188
2323,1.375,3,0,-0.01708984,-0.005371094,0.9951172,0.2583008,0.008300781,-0.5117188
2324,1.5,3.25,0.5,0.001953125,-0.005371094,0.9873047,0.2583008,0.008300781,-0.5117188
2328,1,3.625,0.6875,-0.02539063,-0.005371094,0.9750977,0.2583008,0.008300781,-0.5117188
2329,0.25,3.5625,0.8125,0.001953125,-0.005371094,1.006836,0.2583008,0.008300781,-0.5117188
2333,-0.25,3.375,0.875,-0.009277344,-0.009277344,0.9833984,0.2636719,0.005859375,-0.5117188
2334,-0.1875,3.5625,0.6875,-0.01708984,-0.0009765625,1.010742,0.2636719,0.005859375,-0.5117188
2338,-0.625,3.125,0.4375,-0.01318359,-0.0009765625,0.9790039,0.2636719,0.005859375,-0.5117188
2339,-1.625,3.0625,0,-0.001464844,0.006347656,0.9711914,0.2558594,0.003417969,-0.5141602
2343,-2.1875,3.125,-0.1875,-0.009277344,-0.02490234,0.9833984,0.2558594,0.003417969,-0.5141602
2344,-2.9375,2.6875,-0.5,-0.001464844,-0.02099609,1.010742,0.2558594,0.003417969,-0.5141602
2348,-3.0625,2.9375,-0.5,0.01025391,-0.009277344,0.9833984,0.2558594,0.003417969,-0.5141602
2349,-2.5,2.875,-0.6875,-0.01318359,-0.009277344,1.010742,0.2558594,0.003417969,-0.5141602
2353,-2.1875,3,-0.75,-0.02099609,-0.01708984,1.010742,0.2558594,0.003417969,-0.5141602
2354,-1.875,2.625,-0.9375,-0.005371094,-0.005371094,1.00293,0.2558594,0.003417969,-0.5141602
2358,-2,2.375,-1,-0.005371094,-0.009277344,0.9833984,0.2583008,0.0004882813,-0.5170898
2359,-1.0625,2,-1.125,-0.02929688,-0.005371094,1.030273,0.2583008,0.0004882813,-0.5170898
2363,-0.125,1.5,-0.875,-0.01708984,-0.0009765625,0.9912109,0.2583008,0.0004882813,-0.5170898
2364,1.6875,1.25,-0.75,-0.01708984,-0.009277344,0.9833984,0.2558594,0.005859375,-0.5170898
2368,2.75,1,-0.6875,-0.01318359,-0.0009765625,1.018555,0.2558594,0.005859375,-0.5170898
2370,3.125,0.1875,-0.4375,-0.02929688,-0.02929688,0.9873047,0.2558594,0.005859375,-0.5170898
2374,2.5,-0.375,-0.4375,0.001953125,-0.02099609,1.010742,0.2558594,0.005859375,-0.5170898
2375,1.9375,-0.875,-0.3125,-0.03710938,-0.01708984,0.9711914,0.2583008,0.01074219,-0.5092773
2379,1.375,-1.3125,-0.125,-0.02539063,0.006347656,0.9750977,0.2583008,0.01074219,-0.5092773
2380,0.375,-1.4375,0.1875,-0.01318359,-0.01708984,0.9750977,0.2583008,0.01074219,-0.5092773
2384,-1.375,-1.75,0.75,-0.03710938,-0.009277344,0.9833984,0.2607422,0.003417969,-0.5141602
2385,-3.4375,-2.4375,0.875,-0.01708984,-0.01318359,0.9951172,0.2607422,0.003417969,-0.5141602
2389,-4.625,-2.8125,0.5625,-0.02539063,-0.0009765625,1.018555,0.2607422,0.003417969,-0.5141602
2390,-4.875,-3,0.5,-0.005371094,0.002441406,0.9873047,0.2607422,-0.00390625,-0.5117188
2394,-3.8125,-2.875,1.0625,-0.02539063,0.01855469,0.9833984,0.2607422,-0.00390625,-0.5117188
2395,-2.625,-2.25,1.4375,-0.02099609,-0.005371094,0.9990234,0.2607422,-0.00390625,-0.5117188
2399,-2.1875,-1.6875,1.125,-0.02929688,-0.0009765625,1.00293,0.2607422,-0.00390625,-0.5117188
2400,-2.875,-1.75,1.125,-0.02539063,-0.01708984,0.9990234,0.2504883,0.008300781,-0.5039063
2404,-3.625,-1.375,0.8125,-0.02099609,-0.02099609,0.9912109,0.2504883,0.008300781,-0.5039063
2405,-3,-1,1,-0.02099609,0.002441406,1.006836,0.2504883,0.008300781,-0.5039063
2409,-1.6875,-1.0625,1.1875,-0.02099609,0.006347656,0.9873047,0.2607422,0.01074219,-0.5141602
2410,0.0625,-0.8125,1,-0.009277344,-0.005371094,1.00293,0.2607422,0.01074219,-0.5141602
2414,0.9375,-0.875,0.8125,-0.01708984,-0.02490234,0.9990234,0.2607422,0.01074219,-0.5141602
2415,1.8125,-0.6875,0.5,-0.02929688,-0.009277344,1.018555,0.2607422,0.01074219,-0.5141602
2419,2.4375,-0.375,0.25,-0.009277344,0.002441406,1.010742,0.2607422,0.01074219,-0.5141602
2420,3.5625,-0.125,0.375,-0.01318359,-0.009277344,1.010742,0.2607422,0.01074219,-0.5141602
2424,3.5625,0,0.0625,-0.01708984,-0.02099609,0.9912109,0.2607422,0.01074219,-0.5141602
2425,1.5625,0.3125,0.125,-0.03710938,-0.03320313,0.9912109,0.2558594,0.003417969,-0.5117188
2429,-1.8125,0.3125,0.5,-0.04101563,-0.04101563,0.9711914,0.2558594,0.003417969,-0.5117188
2430,-5.0625,0.25,0.625,-0.01708984,-0.02099609,1.010742,0.2558594,0.003417969,-0.5117188
2434,-6.0625,0.0625,0.4375,-0.01708984,-0.0009765625,0.9833984,0.2583008,0.008300781,-0.5092773
2435,-5.8125,-0.1875,0.4375,-0.005371094,0.01855469,1.014648,0.2583008,0.008300781,-0.5092773
2439,-4.625,-0.8125,0.375,-0.009277344,0.01025391,1.026367,0.2583008,0.008300781,-0.5092773
2440,-4.3125,-0.875,0.375,-0.02929688,0.002441406,1.014648,0.2583008,0.008300781,-0.5092773
2444,-4.3125,-0.5,0.25,-0.02099609,0.006347656,1.026367,0.2583008,0.008300781,-0.5092773
2445,-4.0625,0.125,0,-0.02539063,0.01025391,1.03418,0.2583008,0.008300781,-0.5092773
2449,-3.4375,0.3125,0.1875,-0.02099609,0.002441406,1.006836,0.2583008,0.008300781,-0.5092773
2450,-2.1875,0.8125,0.3125,-0.009277344,0.002441406,1.010742,0.2583008,0.008300781,-0.5141602
2454,-0.5,0.5,0.3125,-0.02099609,0.002441406,1.014648,0.2583008,0.008300781,-0.5141602
2455,0.875,0.375,0.1875,-0.005371094,0.02246094,1.026367,0.2583008,0.008300781,-0.5141602
2459,1.1875,0,0.25,-0.005371094,-0.009277344,1.00293,0.2607422,0.003417969,-0.5117188
2460,1,0.0625,0.625,-0.02929688,-0.02099609,1.022461,0.2607422,0.003417969,-0.5117188
2464,-0.875,-0.4375,0.375,-0.01318359,0.002441406,1.030273,0.2607422,0.003417969,-0.5117188
2465,-2.25,-0.1875,0.25,-0.01318359,-0.005371094,1.018555,0.2607422,0.003417969,-0.5117188
2469,-2.5625,0.0625,0.125,-0.005371094,0.006347656,1.010742,0.2558594,0.008300781,-0.5063477
2470,-1.9375,0.0625,0.25,-0.02099609,-0.02099609,1.010742,0.2558594,0.008300781,-0.5063477
2474,-0.25,0.375,0.25,-0.01708984,0.01416016,1.014648,0.2558594,0.008300781,-0.5063477
2475,0.3125,0.125,0.3125,-0.02539063,0.01416016,1.010742,0.2529297,0.01318359,-0.5117188
2479,0.4375,0.25,0.3125,-0.03320313,-0.009277344,1.00293,0.2529297,0.01318359,-0.5117188
2480,-0.0625,0.5,0.25,-0.02099609,-0.009277344,0.9790039,0.2529297,0.01318359,-0.5117188
2484,-0.125,0.75,0.375,-0.02099609,-0.02929688,0.9951172,0.2636719,0.008300781,-0.5117188
2485,0.125,0.9375,0.5,-0.01708984,-0.01318359,1.010742,0.2636719,0.008300781,-0.5117188
2489,0.375,0.75,0.3125,-0.01318359,-0.01318359,1.014648,0.2636719,0.008300781,-0.5117188
2490,0.1875,-0.25,0.5625,-0.02539063,-0.03710938,0.9833984,0.2636719,0.008300781,-0.5117188
2494,-0.6875,-0.625,0.5625,-0.02929688,-0.01318359,0.9951172,0.2480469,0.008300781,-0.5170898
2495,-0.75,-0.625,0.25,-0.009277344,-0.02490234,1.010742,0.2480469,0.008300781,-0.5170898
2499,-0.9375,0,0.75,-0.02539063,-0.0009765625,0.9833984,0.2480469,0.008300781,-0.5170898
2500,-0.875,0.0625,0.625,-0.03710938,-0.01318359,0.9750977,0.2583008,0.008300781,-0.5039063
2504,-1.375,-0.25,1.0625,-0.01318359,-0.009277344,0.9833984,0.2583008,0.008300781,-0.5039063
2505,-1.375,-0.9375,0.875,-0.02929688,-0.009277344,0.9912109,0.2583008,0.008300781,-0.5039063
2509,-1.1875,-1.3125,0.8125,-0.02099609,-0.009277344,0.9951172,0.2583008,0.008300781,-0.5039063
2510,-0.5,-1.375,0.875,-0.01708984,-0.02929688,0.9750977,0.2583008,0.008300781,-0.5039063
2514,-0.125,-1.875,1,-0.03320313,0.002441406,0.9951172,0.2583008,0.008300781,-0.5039063
2515,-0.0625,-2.0625,0.8125,-0.03320313,-0.01708984,1.014648,0.2583008,0.008300781,-0.5039063
2519,-0.1875,-2,0.6875,-0.005371094,-0.02490234,1.00293,0.2558594,0.008300781,-0.5039063
2520,-0.125,-2.0625,0.375,-0.01708984,-0.02490234,0.9873047,0.2558594,0.008300781,-0.5039063
2524,0.1875,-1.6875,0.8125,0.005859375,-0.01318359,1.010742,0.2558594,0.008300781,-0.5039063
2525,0.8125,-1.0625,0.75,-0.001464844,0.006347656,1.014648,0.2607422,-0.00390625,-0.5141602
2529,1.3125,-0.5625,0.6875,-0.02929688,-0.005371094,0.9912109,0.2607422,-0.00390625,-0.5141602
2531,1.6875,-0.125,0.4375,-0.01708984,0.006347656,1.00293,0.2607422,-0.00390625,-0.5141602
2535,2,0,0.4375,-0.001464844,-0.005371094,1.010742,0.2607422,-0.00390625,-0.5141602
2536,1.9375,0.125,0.3125,-0.01708984,0.002441406,0.9990234,0.2607422,-0.00390625,-0.5141602
2540,1.9375,-0.1875,0.1875,-0.02539063,0.002441406,1.010742,0.2607422,-0.00390625,-0.5141602
2541,1.75,-0.375,0.5,-0.02099609,-0.0009765625,0.9912109,0.2607422,-0.00390625,-0.5141602
2545,1.4375,-0.6875,0.4375,-0.02929688,0.01416016,1.006836,0.2504883,0.005859375,-0.5063477
2546,1.25,-0.5,0.3125,-0.005371094,-0.005371094,1.014648,0.2504883,0.005859375,-0.5063477
2550,1.125,-0.75,0.625,-0.02929688,-0.0009765625,0.9951172,0.2504883,0.005859375,-0.5063477
2551,1.3125,-0.75,0.625,-0.01708984,-0.005371094,0.9990234,0.2583008,0.003417969,-0.5195313
2555,1.3125,-1.3125,0.5625,-0.005371094,-0.01318359,0.9990234,0.2583008,0.003417969,-0.5195313
2556,0.9375,-1.4375,0.6875,-0.009277344,0.01025391,1.00293,0.2583008,0.003417969,-0.5195313
2560,0.125,-2.0625,0.6875,-0.01318359,0.01025391,0.9790039,0.2583008,0.003417969,-0.5195313
2561,-0.625,-3.125,0.5,-0.005371094,-0.01318359,1.00293,0.2558594,0.005859375,-0.5092773
2565,-0.875,-3.875,0.4375,-0.02929688,0.002441406,0.9790039,0.2558594,0.005859375,-0.5092773
2566,-1.375,-4,0.4375,-0.02539063,-0.005371094,0.9833984,0.2558594,0.005859375,-0.5092773
2570,-1.125,-4.0625,0.1875,-0.01708984,-0.009277344,1.006836,0.2583008,0.008300781,-0.5063477
2571,-1.375,-3.8125,0.1875,-0.009277344,0.002441406,1.006836,0.2583008,0.008300781,-0.5063477
2575,-1.6875,-3.75,0.3125,-0.01318359,-0.01318359,1.00293,0.2583008,0.008300781,-0.5063477
2576,-1.875,-3.75,0.375,-0.02539063,0.002441406,0.9990234,0.2558594,-0.006347656,-0.5170898
2580,-1.1875,-3.4375,0.1875,-0.02099609,-0.03320313,0.9912109,0.2558594,-0.006347656,-0.5170898
2581,-0.3125,-2.75,0.1875,-0.03710938,-0.009277344,0.9951172,0.2558594,-0.006347656,-0.5170898
2585,0.25,-2.3125,0.6875,-0.02929688,-0.03710938,1.010742,0.2558594,-0.006347656,-0.5170898
2586,0.6875,-1.625,0.6875,-0.01708984,-0.01708984,0.9951172,0.2685547,0.005859375,-0.5141602
2590,0.75,-0.875,0.875,-0.005371094,-0.01708984,0.9873047,0.2685547,0.005859375,-0.5141602
2591,0.6875,-0.5,0.6875,-0.02099609,-0.009277344,1.010742,0.2685547,0.005859375,-0.5141602
2595,0.25,-0.1875,0.75,-0.001464844,-0.01708984,0.9833984,0.2558594,-0.001464844,-0.5170898
2596,-0.75,0.125,1.25,-0.02099609,-0.02929688,0.9951172,0.2558594,-0.001464844,-0.5170898
2600,-1.25,0.3125,1.0625,0.001953125,-0.02929688,0.9912109,0.2558594,-0.001464844,-0.5170898
2601,-0.75,0.5,0.875,-0.009277344,0.006347656,1.00293,0.2480469,0.008300781,-0.5092773
2605,-0.125,1,0.9375,-0.01318359,-0.02490234,1.010742,0.2480469,0.008300781,-0.5092773
2606,1,0.875,0.75,-0.03320313,-0.005371094,0.9990234,0.2480469,0.008300781,-0.5092773
2610,1.9375,1.375,0.625,-0.001464844,0.002441406,0.9951172,0.2480469,0.008300781,-0.5092773
2611,2.1875,1.5625,0.625,0.005859375,0.006347656,0.9833984,0.2583008,-0.00390625,-0.5063477
2615,1.75,1.375,0,0.001953125,-0.0009765625,1.010742,0.2583008,-0.00390625,-0.5063477
2616,1.5625,1.3125,-0.25,-0.01708984,0.002441406,0.9912109,0.2583008,-0.00390625,-0.5063477
2620,1.5,1.5625,-0.75,0.001953125,-0.005371094,0.9990234,0.2583008,0.01074219,-0.5117188
2621,1.375,1.8125,-1,-0.01318359,0.01416016,0.9951172,0.2583008,0.01074219,-0.5117188
2625,0.875,1.9375,-1.25,-0.01708984,0.03027344,0.9990234,0.2583008,0.01074219,-0.5117188
2626,0.6875,1.3125,-1.5625,-0.009277344,0.01855469,0.9990234,0.2583008,0.01074219,-0.5117188
2630,0.6875,1.1875,-1.625,-0.005371094,0.01025391,1.010742,0.2583008,0.01074219,-0.5117188
2631,-0.125,1,-2,-0.01708984,0.03027344,0.9990234,0.2583008,0.01074219,-0.5117188
2635,-1,1.0625,-1.625,-0.01318359,0.01025391,1.014648,0.2583008,0.01074219,-0.5117188
2636,-1,0.8125,-1.5625,-0.03320313,-0.005371094,0.9912109,0.2583008,-0.001464844,-0.5117188
2640,-0.8125,0.8125,-1.625,-0.02539063,-0.005371094,1.010742,0.2583008,-0.001464844,-0.5117188
2641,-1.0625,0.0625,-1.5625,-0.001464844,-0.0009765625,0.9912109,0.2583008,-0.001464844,-0.5117188
2645,-1,-0.75,-1.1875,-0.005371094,0.02636719,1.00293,0.2529297,0.005859375,-0.5170898
2646,-1.1875,-1.3125,-0.8125,-0.02099609,0.01416016,0.9990234,0.2529297,0.005859375,-0.5170898
2650,-0.75,-1.6875,-0.6875,-0.009277344,0.01025391,1.014648,0.2529297,0.005859375,-0.5170898
2651,-0.0625,-1.875,-0.3125,-0.02099609,0.002441406,1.00293,0.2529297,0.005859375,-0.5170898
2655,0.1875,-2.1875,0.0625,-0.01318359,-0.005371094,0.9912109,0.2607422,0.003417969,-0.5170898
2656,-0.0625,-3.1875,0.8125,-0.01708984,0.006347656,0.9750977,0.2607422,0.003417969,-0.5170898
2660,-0.5,-4.0625,1.1875,-0.005371094,-0.02099609,0.9790039,0.2607422,0.003417969,-0.5170898
2661,-1.0625,-4.6875,1.5625,-0.005371094,-0.02929688,0.9951172,0.2558594,0.008300781,-0.5170898
2665,-1.1875,-5.1875,1.5625,-0.001464844,-0.005371094,0.9912109,0.2558594,0.008300781,-0.5170898
2666,-1.875,-4.75,1.6875,-0.02929688,-0.01318359,0.9833984,0.2558594,0.008300781,-0.5170898
2670,-2.375,-4.5625,1.8125,-0.01318359,-0.01708984,0.9951172,0.2583008,0.01318359,-0.5092773
2671,-2.5625,-4.25,2.1875,-0.005371094,-0.01708984,0.9790039,0.2583008,0.01318359,-0.5092773
2675,-2.875,-4.4375,2.125,-0.005371094,-0.03710938,0.9912109,0.2583008,0.01318359,-0.5092773
2676,-3,-4.4375,1.9375,-0.02539063,-0.02099609,0.9833984,0.2583008,0.01318359,-0.5092773
2680,-2.5625,-4.1875,1.875,-0.005371094,0.006347656,1.00293,0.2529297,-0.001464844,-0.5117188
2681,-1.875,-3.75,1.6875,0.001953125,-0.02099609,0.9873047,0.2529297,-0.001464844,-0.5117188
2685,-1.625,-3.375,1.75,-0.005371094,-0.009277344,0.9912109,0.2529297,-0.001464844,-0.5117188
2686,-1,-3.1875,1.375,-0.001464844,-0.01708984,0.9951172,0.2529297,0.003417969,-0.5063477
2690,-0.625,-3.1875,1.1875,-0.005371094,-0.0009765625,1.010742,0.2529297,0.003417969,-0.5063477
2693,0.0625,-3.4375,1,-0.009277344,0.006347656,0.9990234,0.2529297,0.003417969,-0.5063477
2697,0.6875,-3.375,0.625,-0.001464844,-0.02929688,0.9951172,0.2529297,0.01074219,-0.5141602
2698,0.9375,-2.8125,0.4375,-0.005371094,-0.01708984,0.9750977,0.2529297,0.01074219,-0.5141602
2702,0.75,-1.9375,0,-0.02099609,-0.03710938,0.9873047,0.2529297,0.01074219,-0.5141602
2703,0.5,-1.5625,-0.3125,-0.009277344,-0.01318359,0.9951172,0.2529297,0.01074219,-0.5141602
2707,1,-0.75,-0.6875,-0.001464844,0.01025391,0.9912109,0.2583008,0.01074219,-0.5117188
2708,1,-0.4375,-1.25,-0.02099609,-0.005371094,1.00293,0.2583008,0.01074219,-0.5117188
2712,1,0.125,-1.5,-0.005371094,-0.0009765625,1.022461,0.2583008,0.01074219,-0.5117188
2713,1.125,0.375,-1.5625,-0.005371094,0.01025391,0.9912109,0.2504883,0.008300781,-0.5092773
2717,0.8125,0.4375,-1.9375,0.01025391,0.01416016,1.006836,0.2504883,0.008300781,-0.5092773
2718,0,0.6875,-2,-0.01708984,0.006347656,0.9672852,0.2504883,0.008300781,-0.5092773
2722,-1.25,0.75,-1.6875,-0.005371094,-0.0009765625,0.9951172,0.2504883,0.008300781,-0.5092773
2723,-1.875,0.375,-1.5625,0.001953125,-0.005371094,1.010742,0.2504883,0.008300781,-0.5092773
2727,-1.9375,0.625,-1.1875,-0.001464844,0.01025391,1.006836,0.2504883,0.008300781,-0.5092773
2728,-1.1875,0.4375,-0.9375,0.001953125,-0.009277344,1.010742,0.2504883,0.008300781,-0.5092773
2732,-0.625,0.375,-0.75,-0.02099609,-0.0009765625,1.00293,0.2529297,-0.00390625,-0.5117188
2733,-0.5,0,-0.5625,-0.005371094,0.01025391,1.006836,0.2529297,-0.00390625,-0.5117188
2737,-0.75,0,0,-0.009277344,-0.01318359,1.010742,0.2529297,-0.00390625,-0.5117188
2738,-1,0.1875,0.0625,-0.02539063,-0.005371094,1.00293,0.2558594,-0.001464844,-0.5092773
2742,-1.0625,0.5,0.25,-0.02099609,-0.01708984,0.9990234,0.2558594,-0.001464844,-0.5092773
2743,-1.1875,0.5,0.625,0.01025391,-0.0009765625,1.010742,0.2558594,-0.001464844,-0.5092773
2747,-1.1875,0.0625,0.9375,-0.005371094,-0.02099609,0.9912109,0.2558594,-0.001464844,-0.5092773
2748,-1.5,-0.1875,1,-0.001464844,-0.01318359,0.9990234,0.2529297,0.01074219,-0.5117188
2752,-1.3125,-0.625,0.875,-0.02099609,-0.0009765625,0.9951172,0.2529297,0.01074219,-0.5117188
2753,-1.25,-0.8125,0.75,0.001953125,-0.005371094,0.9873047,0.2529297,0.01074219,-0.5117188
2757,-1.3125,-0.9375,0.625,-0.02099609,-0.01318359,1.006836,0.2558594,-0.00390625,-0.5117188
2758,-1.5,-0.75,0.25,0.005859375,0.02246094,1.010742,0.2558594,-0.00390625,-0.5117188
2762,-1.0625,-0.5,0.5625,-0.005371094,0.002441406,1.00293,0.2558594,-0.00390625,-0.5117188
2763,-0.4375,-0.25,0.375,-0.005371094,-0.01708984,1.010742,0.2558594,-0.001464844,-0.5195313
2767,0,-0.3125,0.0625,-0.01708984,-0.01708984,0.9990234,0.2558594,-0.001464844,-0.5195313
2768,0.375,-0.375,-0.0625,-0.01318359,-0.005371094,0.9672852,0.2558594,-0.001464844,-0.5195313
2772,0.125,-0.6875,-0.125,-0.005371094,-0.01708984,0.9951172,0.2558594,-0.001464844,-0.5195313
2773,-0.5625,-0.625,0,0.001953125,-0.005371094,0.9873047,0.2583008,0.015625,-0.5141602
2777,-0.75,-0.4375,-0.1875,0.001953125,-0.01708984,0.9873047,0.2583008,0.015625,-0.5141602
2778,-0.625,0.1875,-0.1875,-0.02099609,-0.02490234,1.006836,0.2583008,0.015625,-0.5141602
2782,-0.625,-0.25,0.125,-0.01708984,-0.01708984,0.9873047,0.2529297,0.01806641,-0.5141602
2783,-0.3125,-0.4375,0,-0.005371094,-0.02099609,0.9912109,0.2529297,0.01806641,-0.5141602
2787,-0.125,-0.4375,-0.0625,-0.005371094,-0.01318359,0.9951172,0.2529297,0.01806641,-0.5141602
2788,-0.25,-0.5625,-0.3125,-0.01708984,-0.005371094,0.9912109,0.2451172,0.01318359,-0.5170898
2792,-0.1875,-0.5625,-0.4375,-0.02929688,-0.01318359,1.006836,0.2451172,0.01318359,-0.5170898
2793,-0.5,-0.125,-0.6875,-0.01318359,0.01025391,0.9790039,0.2451172,0.01318359,-0.5170898
2797,-0.375,-0.5,-0.5,0.001953125,-0.009277344,0.9873047,0.2451172,0.01318359,-0.5170898
2798,-0.125,-0.5,-0.625,-0.001464844,-0.03320313,0.9833984,0.2480469,0.015625,-0.5063477
2802,0.4375,-0.375,-0.25,-0.01318359,-0.01318359,0.9990234,0.2480469,0.015625,-0.5063477
2803,0.4375,-0.5625,-0.5625,0.001953125,-0.01318359,1.018555,0.2480469,0.015625,-0.5063477
2807,0.5625,-0.625,-0.8125,-0.005371094,-0.01708984,1.00293,0.2529297,0.005859375,-0.5117188
2808,0.4375,-0.5,-0.75,0.01025391,-0.005371094,1.014648,0.2529297,0.005859375,-0.5117188
2812,0.125,-0.5,-0.8125,-0.001464844,-0.005371094,0.9912109,0.2529297,0.005859375,-0.5117188
2813,-0.25,-0.625,-0.75,-0.005371094,-0.02099609,1.00293,0.2529297,0.005859375,-0.5117188
2817,-1.25,-0.1875,-0.8125,-0.01318359,-0.02099609,1.014648,0.2529297,0.005859375,-0.5117188
2818,-2.1875,0,-0.5625,-0.009277344,-0.01318359,0.9912109,0.2529297,0.005859375,-0.5117188
2822,-2.6875,0.5,-0.6875,-0.005371094,-0.01318359,1.014648,0.2529297,0.005859375,-0.5117188
2823,-2.25,0.75,-0.375,0.005859375,0.002441406,1.006836,0.2583008,0.003417969,-0.5092773
2827,-1.25,0.875,-0.5,-0.01708984,-0.01318359,1.010742,0.2583008,0.003417969,-0.5092773
2828,-1.25,1.3125,0,-0.01708984,-0.009277344,1.006836,0.2583008,0.003417969,-0.5092773
2832,-1.5625,1,0.0625,-0.005371094,-0.009277344,1.022461,0.2583008,0.008300781,-0.5170898
2833,-2,0.9375,0,-0.005371094,-0.009277344,1.014648,0.2583008,0.008300781,-0.5170898
2837,-2.6875,0.5,0.25,-0.02929688,-0.005371094,1.00293,0.2583008,0.008300781,-0.5170898
2838,-3.125,0.1875,0.4375,-0.005371094,0.006347656,1.010742,0.2583008,0.008300781,-0.5170898
2842,-3.1875,-0.75,0.8125,-0.001464844,0.01855469,1.030273,0.2583008,0.008300781,-0.5170898
2843,-2.5625,-0.625,1.0625,0.01025391,-0.005371094,1.018555,0.2583008,0.008300781,-0.5170898
2847,-1.75,-0.5,1,-0.01318359,0.01025391,1.018555,0.2583008,0.008300781,-0.5170898
2848,-1.625,-0.625,1.1875,0.001953125,-0.0009765625,1.010742,0.2583008,0.015625,-0.5170898
2852,-1.3125,-0.6875,1.375,-0.009277344,-0.009277344,1.014648,0.2583008,0.015625,-0.5170898
2854,-2,-1.125,1.25,-0.01318359,-0.01318359,0.9912109,0.2583008,0.015625,-0.5170898
2858,-1.8125,-1.5,1.25,0.01416016,-0.0009765625,0.9912109,0.2480469,0.0004882813,-0.5141602
2859,-1,-1.75,1.625,-0.005371094,-0.01318359,1.014648,0.2480469,0.0004882813,-0.5141602
2863,-0.9375,-2.125,1.0625,0.01025391,-0.01318359,0.9990234,0.2480469,0.0004882813,-0.5141602
2864,-0.5,-2.0625,0.9375,-0.001464844,-0.03320313,1.006836,0.2480469,0.0004882813,-0.5141602
2868,-0.25,-1.9375,0.875,-0.001464844,-0.009277344,0.9990234,0.2583008,0.005859375,-0.5117188
2869,-0.4375,-1.1875,0.8125,-0.02099609,-0.01318359,0.9912109,0.2583008,0.005859375,-0.5117188
2873,-0.375,-0.625,1,-0.005371094,-0.02490234,0.9833984,0.2583008,0.005859375,-0.5117188
2874,-0.375,-0.25,0.625,-0.01318359,-0.02490234,0.9833984,0.2504883,0.008300781,-0.5141602
2878,-0.4375,-0.125,0.6875,0.01416016,0.01025391,0.9873047,0.2504883,0.008300781,-0.5141602
2879,-0.5,-0.125,0.9375,-0.005371094,-0.01708984,0.9951172,0.2504883,0.008300781,-0.5141602
2883,-0.3125,-0.4375,0.6875,0.001953125,-0.009277344,0.9951172,0.2504883,0.005859375,-0.5117188
2884,0.1875,0.0625,0.125,0.005859375,-0.005371094,1.018555,0.2504883,0.005859375,-0.5117188
2888,0.3125,0.25,0.4375,0.001953125,-0.01318359,1.010742,0.2504883,0.005859375,-0.5117188
2889,0.25,0.375,-0.0625,0.001953125,-0.0009765625,0.9990234,0.2504883,0.005859375,-0.5117188
2893,0.1875,0.75,-0.25,-0.01318359,-0.01318359,0.9990234,0.2558594,0.01318359,-0.5063477
2894,-0.0625,0.4375,-0.5625,0.001953125,-0.02099609,0.9990234,0.2558594,0.01318359,-0.5063477
2898,-0.375,0.375,-0.8125,0.001953125,0.002441406,1.010742,0.2558594,0.01318359,-0.5063477
2899,-0.875,0.0625,-0.5625,-0.005371094,-0.01708984,0.9912109,0.2480469,0.003417969,-0.5117188
2903,-1.1875,0.25,-0.75,-0.005371094,-0.005371094,0.9990234,0.2480469,0.003417969,-0.5117188
2904,-1.125,0.3125,-1,-0.01708984,-0.009277344,1.018555,0.2480469,0.003417969,-0.5117188
2908,-1.125,0.1875,-0.5625,-0.02539063,-0.0009765625,0.9912109,0.2480469,0.003417969,-0.5117188
2909,-1.3125,0.375,-0.4375,-0.02099609,0.006347656,0.9951172,0.2480469,0.003417969,-0.5117188
2913,-1.8125,0.5,-0.5,-0.01318359,-0.005371094,1.014648,0.2480469,0.003417969,-0.5117188
2914,-1.625,0.3125,-0.1875,0.001953125,-0.009277344,1.014648,0.2480469,0.003417969,-0.5117188
2918,-1.3125,0,-0.375,-0.001464844,-0.005371094,1.022461,0.2451172,0.003417969,-0.5219727
2919,-1.1875,-0.375,-0.125,-0.005371094,0.01025391,0.9711914,0.2451172,0.003417969,-0.5219727
2923,-1.25,-0.6875,-0.0625,0.001953125,-0.01318359,0.9951172,0.2451172,0.003417969,-0.5219727
2924,-1.25,-0.625,-0.125,-0.01318359,0.006347656,0.9912109,0.2504883,0.01074219,-0.5170898
2928,-0.9375,0,-0.1875,-0.009277344,-0.0009765625,1.010742,0.2504883,0.01074219,-0.5170898
2929,-1.0625,0.25,0.5625,-0.01708984,-0.01708984,1.010742,0.2504883,0.01074219,-0.5170898
2933,-1.4375,0.625,0.625,-0.02099609,-0.02929688,0.9873047,0.2504883,0.01074219,-0.5170898
2934,-1.875,0.1875,0.9375,-0.01318359,-0.009277344,0.9873047,0.2558594,0.015625,-0.5141602
2938,-2.25,0.125,1.125,-0.02539063,-0.02490234,1.010742,0.2558594,0.015625,-0.5141602
2939,-2,-0.125,1.3125,-0.01318359,-0.03320313,0.9912109,0.2558594,0.015625,-0.5141602
2943,-1.6875,-0.25,1.3125,-0.02099609,-0.0009765625,0.9750977,0.2558594,0.01074219,-0.5219727
2944,-1.25,-0.4375,1.4375,-0.01318359,-0.02099609,0.9951172,0.2558594,0.01074219,-0.5219727
2948,-0.6875,-0.6875,1.5625,-0.001464844,-0.01708984,1.00293,0.2558594,0.01074219,-0.5219727
2949,-0.0625,-0.9375,1.6875,-0.02099609,-0.02490234,0.9833984,0.2504883,0.003417969,-0.5092773
2953,0,-1.3125,1.5625,0.001953125,-0.0009765625,0.9711914,0.2504883,0.003417969,-0.5092773
2954,0.3125,-2.0625,1.25,-0.02539063,-0.03320313,1.010742,0.2504883,0.003417969,-0.5092773
2958,0.9375,-2.5625,1.25,-0.01708984,-0.04101563,0.9951172,0.2504883,0.003417969,-0.5092773
2959,1.3125,-3.5625,1.1875,-0.01708984,-0.02929688,0.9790039,0.2558594,0.01074219,-0.5117188
2963,2,-3.1875,0.625,0.005859375,-0.02099609,0.9873047,0.2558594,0.01074219,-0.5117188
2964,2,-3.5625,1,-0.02539063,-0.02490234,0.9750977,0.2558594,0.01074219,-0.5117188
2968,1.625,-3.3125,1.0625,-0.02539063,-0.02490234,0.9912109,0.2529297,0.008300781,-0.5117188
2969,1.125,-3.6875,1,0.001953125,-0.02490234,0.9873047,0.2529297,0.008300781,-0.5117188
2973,0.8125,-4.25,0.75,-0.005371094,-0.03320313,0.9672852,0.2529297,0.008300781,-0.5117188
2974,0.875,-4.8125,0.625,-0.001464844,-0.03710938,0.9990234,0.2607422,0.01074219,-0.5141602
2978,1.125,-5.1875,0.5,-0.02099609,-0.01708984,1.00293,0.2607422,0.01074219,-0.5141602
2979,1.0625,-5.1875,0.3125,-0.005371094,-0.01318359,0.9790039,0.2607422,0.01074219,-0.5141602
2983,0.75,-5.375,0.6875,-0.001464844,-0.02490234,0.9833984,0.2607422,0.01074219,-0.5141602
2984,0,-5.1875,0.75,-0.005371094,-0.01708984,1.010742,0.2529297,0.01074219,-0.5092773
2988,-0.25,-5,0.5625,-0.005371094,-0.009277344,0.9951172,0.2529297,0.01074219,-0.5092773
2989,-0.25,-4.25,0.625,0.005859375,0.006347656,1.010742,0.2529297,0.01074219,-0.5092773
2993,-0.125,-3.125,0.875,0.01025391,-0.005371094,1.018555,0.2529297,0.01074219,-0.5092773
2994,-0.0625,-2.0625,0.8125,-0.005371094,0.006347656,1.014648,0.2529297,0.01074219,-0.5092773
2998,0.0625,-1.0625,0.8125,-0.009277344,-0.005371094,1.026367,0.2529297,0.01074219,-0.5092773
2999,0.3125,-0.375,0.5625,0.02197266,-0.02099609,1.006836,0.2529297,0.01074219,-0.5092773
3003,0.0625,0.0625,0.6875,0.01806641,-0.0009765625,0.9912109,0.2529297,0.01074219,-0.5092773
3004,0.0625,0.5,0.5,0.005859375,-0.005371094,1.00293,0.2529297,0.01074219,-0.5092773
3008,0,0.75,0.375,-0.005371094,-0.005371094,1.00293,0.2529297,0.01074219,-0.5092773
3009,-0.4375,1.3125,0.5625,0.01025391,-0.009277344,1.026367,0.2558594,0.01318359,-0.5063477
3013,-1.0625,1.6875,0.5625,0.01806641,-0.009277344,0.9790039,0.2558594,0.01318359,-0.5063477
3015,-1.375,2,0.1875,0.01025391,-0.0009765625,1.006836,0.2558594,0.01318359,-0.5063477
3019,-1.5625,2.8125,0.0625,-0.001464844,-0.0009765625,1.014648,0.2529297,0.003417969,-0.5063477
3020,-0.875,2.9375,0.0625,0.001953125,0.006347656,0.9990234,0.2529297,0.003417969,-0.5063477
3024,-0.4375,3.25,-0.125,0.001953125,-0.005371094,1.010742,0.2529297,0.003417969,-0.5063477
3025,-0.625,2.6875,-0.3125,-0.001464844,0.006347656,1.010742,0.2529297,0.003417969,-0.5063477
3029,-0.75,2.3125,-0.375,-0.009277344,-0.02490234,1.00293,0.2529297,0.003417969,-0.5063477
3030,-1.1875,1.6875,-0.625,0.001953125,-0.02490234,0.9990234,0.2529297,0.003417969,-0.5063477
3034,-1.5,1.4375,-0.75,-0.001464844,-0.009277344,1.010742,0.2529297,0.003417969,-0.5063477
3035,-1.5625,1.25,-0.625,-0.001464844,-0.009277344,1.014648,0.2583008,0.01074219,-0.5117188
3039,-1.625,1,-0.625,-0.02099609,-0.009277344,1.00293,0.2583008,0.01074219,-0.5117188
3040,-0.75,0.5625,-0.625,-0.03710938,-0.02490234,1.006836,0.2583008,0.01074219,-0.5117188
3044,0,0,-0.5625,0.01025391,-0.009277344,0.9951172,0.2529297,0.01074219,-0.5170898
3045,0.4375,0,-0.5625,-0.005371094,-0.02929688,1.022461,0.2529297,0.01074219,-0.5170898
3049,0.75,-0.5,-0.5,-0.01318359,-0.005371094,0.9873047,0.2529297,0.01074219,-0.5170898
3050,0.8125,-0.375,-0.25,-0.01708984,-0.01318359,0.9912109,0.2529297,0.01074219,-0.5170898
3054,0.5625,-0.5625,-0.0625,-0.005371094,-0.02490234,0.9790039,0.2558594,0.008300781,-0.5170898
3055,0.3125,-0.9375,0,-0.005371094,-0.03710938,1.00293,0.2558594,0.008300781,-0.5170898
3059,0,-1.25,0.0625,0.001953125,-0.02490234,0.9990234,0.2558594,0.008300781,-0.5170898
3060,0,-1.5,0.375,-0.001464844,-0.009277344,0.9951172,0.2558594,0.005859375,-0.5117188
3064,0.3125,-1.8125,0.5,0.005859375,-0.02490234,0.9912109,0.2558594,0.005859375,-0.5117188
3065,1,-1.9375,0.8125,-0.01318359,-0.01318359,1.00293,0.2558594,0.005859375,-0.5117188
3069,1.4375,-1.9375,0.8125,-0.01708984,-0.02490234,1.010742,0.2529297,0.008300781,-0.5092773
3070,1.4375,-2.0625,1.1875,-0.01708984,0.002441406,0.9833984,0.2529297,0.008300781,-0.5092773
3074,0.1875,-2,1.375,0.01025391,-0.01708984,0.9833984,0.2529297,0.008300781,-0.5092773
3075,-0.6875,-1.9375,1.4375,-0.02099609,-0.03710938,0.9833984,0.2529297,0.008300781,-0.5092773
3079,-1.0625,-2.0625,1.875,0.001953125,-0.03320313,0.9873047,0.2558594,0.015625,-0.5063477
3080,-1.0625,-1.9375,1.875,-0.001464844,-0.02099609,1.022461,0.2558594,0.015625,-0.5063477
3084,-1.125,-1.75,2.1875,-0.009277344,-0.02490234,0.9790039,0.2558594,0.015625,-0.5063477
3085,-1.5625,-1.6875,1.9375,-0.01318359,-0.03710938,1.006836,0.2451172,0.005859375,-0.5219727
3089,-2,-1.3125,1.9375,-0.005371094,-0.009277344,0.9951172,0.2451172,0.005859375,-0.5219727
3090,-2.0625,-1.4375,1.4375,-0.009277344,-0.02099609,1.014648,0.2451172,0.005859375,-0.5219727
3094,-1.875,-0.6875,1,0.001953125,-0.009277344,1.00293,0.2451172,0.005859375,-0.5219727
3095,-1.9375,0,0.625,0.01025391,-0.02929688,1.022461,0.2451172,0.005859375,-0.5219727
3099,-1.875,0.5625,0.25,-0.001464844,-0.02929688,1.018555,0.2451172,0.005859375,-0.5219727
3100,-1.0625,1.25,-0.25,0.005859375,-0.009277344,1.030273,0.2451172,0.005859375,-0.5219727
3104,-0.5625,2.0625,-0.5625,-0.005371094,-0.02099609,1.014648,0.2529297,0.02294922,-0.5244141
3105,-0.375,3,-1.0625,-0.005371094,-0.005371094,0.9990234,0.2529297,0.02294922,-0.5244141
3109,-0.5,3.9375,-1.5625,0.005859375,-0.009277344,0.9750977,0.2529297,0.02294922,-0.5244141
3110,-0.875,4.1875,-1.75,-0.001464844,-0.02929688,1.014648,0.2451172,0.0004882813,-0.5063477
3114,-1.1875,4.5625,-1.3125,-0.001464844,-0.03320313,1.026367,0.2451172,0.0004882813,-0.5063477
3115,-1.5625,4.5,-1.5625,0.01025391,-0.01708984,1.014648,0.2451172,0.0004882813,-0.5063477
3119,-1.5625,4.625,-1.375,-0.001464844,-0.009277344,1.022461,0.2451172,0.0004882813,-0.5063477
3120,-1,4.75,-1,-0.001464844,-0.005371094,0.9912109,0.2451172,0.0004882813,-0.5063477
3124,-0.25,4.5,-0.6875,-0.005371094,-0.005371094,1.026367,0.2451172,0.0004882813,-0.5063477
3125,0,4.3125,-0.125,-0.01708984,-0.009277344,1.00293,0.2451172,0.0004882813,-0.5063477
3129,-0.1875,4.0625,-0.25,0.001953125,-0.009277344,1.010742,0.2529297,0.008300781,-0.5141602
3130,-0.5625,3.5625,0.25,-0.009277344,-0.01708984,0.9873047,0.2529297,0.008300781,-0.5141602
3134,-0.75,3.1875,0.75,-0.001464844,-0.005371094,1.022461,0.2529297,0.008300781,-0.5141602
3135,-0.375,2.5625,1.0625,-0.009277344,-0.02099609,0.9873047,0.2504883,0.008300781,-0.5141602
3139,-0.25,2.1875,1.3125,-0.005371094,-0.01318359,1.010742,0.2504883,0.008300781,-0.5141602
3140,-0.125,1.25,1.8125,-0.005371094,-0.01318359,0.9912109,0.2504883,0.008300781,-0.5141602
3144,0,0.5625,2.125,-0.01318359,-0.0009765625,0.9873047,0.2504883,0.008300781,-0.5141602
3145,-0.0625,0.0625,2.1875,-0.01708984,-0.02099609,0.9873047,0.2504883,0.005859375,-0.5170898
3149,-0.1875,-0.5625,2.0625,0.01416016,-0.009277344,1.006836,0.2504883,0.005859375,-0.5170898
3150,-0.1875,-1.125,2,0.01025391,-0.02099609,0.9873047,0.2504883,0.005859375,-0.5170898
3154,-0.5,-1.5625,1.875,-0.02099609,-0.02099609,0.9951172,0.2583008,0.01318359,-0.5141602
3155,-1.375,-1.625,1.75,-0.005371094,-0.02929688,0.9990234,0.2583008,0.01318359,-0.5141602
3159,-2.25,-1.5,1.4375,-0.01318359,-0.03710938,0.9951172,0.2583008,0.01318359,-0.5141602
3160,-2.5,-1.1875,1.25,-0.001464844,-0.02490234,0.9912109,0.2558594,0.01318359,-0.5170898
3164,-2.125,-1.375,1.25,-0.01708984,-0.02490234,1.00293,0.2558594,0.01318359,-0.5170898
3165,-1.4375,-2,1.125,-0.009277344,-0.03710938,1.006836,0.2558594,0.01318359,-0.5170898
3169,-1.125,-2.1875,1.1875,-0.02539063,-0.009277344,0.9833984,0.2558594,0.01318359,-0.5170898
3170,-1.4375,-2.5,0.875,-0.009277344,-0.01318359,1.026367,0.2480469,0.01318359,-0.5141602
3174,-1.0625,-2.5,0.5625,-0.001464844,-0.02490234,1.006836,0.2480469,0.01318359,-0.5141602
3176,-0.0625,-2.75,0.625,-0.009277344,-0.005371094,1.00293,0.2480469,0.01318359,-0.5141602
3180,0.9375,-2.6875,0.75,0.001953125,-0.04101563,0.9951172,0.2529297,0.01806641,-0.5117188
3181,2.125,-2.6875,0.875,-0.02099609,-0.01708984,0.9951172,0.2529297,0.01806641,-0.5117188
3185,2.625,-2.4375,0.5625,-0.001464844,-0.02099609,0.9990234,0.2529297,0.01806641,-0.5117188
3186,2.5,-2.3125,0.75,-0.005371094,-0.0009765625,1.014648,0.2529297,0.02050781,-0.5219727
3190,2.75,-2.0625,0.5625,0.01025391,-0.009277344,0.9990234,0.2529297,0.02050781,-0.5219727
3191,3.0625,-1.875,0.875,-0.009277344,-0.02099609,1.030273,0.2529297,0.02050781,-0.5219727
3195,3.3125,-1.625,0.875,-0.005371094,-0.005371094,0.9990234,0.2529297,0.02050781,-0.5219727
3196,3.375,-1.25,0.8125,0.01025391,-0.0009765625,0.9951172,0.2480469,0.01318359,-0.5117188
3200,3.625,-0.875,0.6875,-0.01708984,-0.005371094,0.9990234,0.2480469,0.01318359,-0.5117188
3201,3.25,-0.625,0.875,-0.005371094,-0.01708984,0.9912109,0.2480469,0.01318359,-0.5117188
3205,2.8125,-0.4375,1.0625,-0.01318359,-0.01708984,0.9912109,0.2583008,-0.00390625,-0.5117188
3206,1.6875,-0.375,1.125,0.001953125,-0.005371094,0.9990234,0.2583008,-0.00390625,-0.5117188
3210,1.0625,-0.75,0.8125,-0.009277344,-0.03320313,1.010742,0.2583008,-0.00390625,-0.5117188
3211,0.6875,-0.75,0.75,0.001953125,-0.009277344,0.9951172,0.2583008,-0.00390625,-0.5117188
3215,0.125,-0.5,0.625,-0.005371094,-0.02490234,0.9833984,0.2583008,-0.00390625,-0.5117188
3216,-0.6875,0,0.8125,-0.005371094,-0.03320313,0.9912109,0.2583008,-0.00390625,-0.5117188
3220,-1.1875,0.25,0.5,0.01025391,-0.01318359,0.9912109,0.2583008,-0.00390625,-0.5117188
3221,-1.3125,0.1875,0.6875,0.01025391,-0.009277344,1.00293,0.2480469,0.003417969,-0.5170898
3225,-1.5,-0.0625,0.75,0.001953125,-0.005371094,1.014648,0.2480469,0.003417969,-0.5170898
3226,-1.25,-0.3125,0.75,0.005859375,-0.01318359,1.022461,0.2480469,0.003417969,-0.5170898
3230,-1.3125,-0.5,0.6875,-0.005371094,-0.01318359,0.9711914,0.2480469,0.01806641,-0.5195313
3231,-0.8125,-0.625,0.5,-0.005371094,0.002441406,1.006836,0.2480469,0.01806641,-0.5195313
3235,0.1875,-0.25,0.875,-0.001464844,-0.009277344,1.00293,0.2480469,0.01806641,-0.5195313
3236,1.0625,0,0.5,-0.001464844,-0.02490234,0.9990234,0.2480469,0.01806641,-0.5195313
3240,1.5,0.125,0.5625,0.001953125,-0.01318359,1.006836,0.2529297,0.005859375,-0.5141602
3241,2,0.375,0.375,-0.001464844,-0.01708984,1.018555,0.2529297,0.005859375,-0.5141602
3245,1.8125,0.1875,0.5,-0.009277344,-0.0009765625,1.010742,0.2529297,0.005859375,-0.5141602
3246,1.875,0.4375,0.75,0.01416016,-0.01708984,0.9790039,0.2583008,0.005859375,-0.5141602
3250,1.375,0.5625,0.625,-0.01318359,-0.01318359,0.9990234,0.2583008,0.005859375,-0.5141602
3251,1,0.8125,0.75,-0.001464844,-0.009277344,0.9912109,0.2583008,0.005859375,-0.5141602
3255,0.6875,0.75,0.875,-0.005371094,-0.02929688,0.9750977,0.2558594,0.01318359,-0.5170898
3256,-0.25,0.8125,0.75,-0.001464844,-0.02490234,1.00293,0.2558594,0.01318359,-0.5170898
3260,-0.875,0.375,0.8125,0.01416016,-0.01708984,1.014648,0.2558594,0.01318359,-0.5170898
3261,-1.125,0.375,0.625,0.005859375,-0.01708984,0.9990234,0.2558594,0.01318359,-0.5170898
3265,-1,-0.125,0.3125,-0.001464844,-0.01708984,1.00293,0.2558594,0.005859375,-0.5092773
3266,-0.5625,-0.4375,0.25,-0.009277344,-0.01318359,0.9951172,0.2558594,0.005859375,-0.5092773
3270,0,-0.625,-0.0625,0.01025391,-0.02490234,1.010742,0.2558594,0.005859375,-0.5092773
3271,0.1875,-0.5625,-0.1875,-0.001464844,-0.005371094,0.9912109,0.2558594,0.01074219,-0.5117188
3275,0.25,-0.25,-0.6875,-0.009277344,-0.01708984,1.018555,0.2558594,0.01074219,-0.5117188
3276,0.875,0.125,-0.8125,-0.02099609,-0.01318359,1.022461,0.2558594,0.01074219,-0.5117188
3280,1.125,0.4375,-0.9375,-0.005371094,-0.01318359,0.9873047,0.2558594,0.01074219,-0.5117188
3281,1.1875,0.375,-0.75,-0.01708984,-0.01318359,0.9951172,0.2558594,0.01074219,-0.5117188
3285,1.3125,0.6875,-0.8125,0.01025391,-0.03710938,1.010742,0.2558594,0.01074219,-0.5117188
3286,1,0.9375,-0.875,0.01025391,-0.009277344,0.9990234,0.2558594,0.01074219,-0.5117188
3290,0.5,1.0625,-0.5625,-0.02539063,0.002441406,0.9750977,0.2558594,0.02050781,-0.5141602
3291,-0.4375,1.4375,-0.5,0.01025391,-0.01318359,0.9990234,0.2558594,0.02050781,-0.5141602
3295,-0.875,1.125,-0.3125,-0.02539063,-0.005371094,0.9873047,0.2558594,0.02050781,-0.5141602
3296,-1.0625,1.3125,-0.375,-0.01708984,0.006347656,1.010742,0.2636719,0.005859375,-0.5117188
3300,-0.75,1.5,-0.5625,-0.009277344,-0.0009765625,0.9990234,0.2636719,0.005859375,-0.5117188
3301,-0.4375,1.5,-0.625,0.001953125,0.002441406,1.010742,0.2636719,0.005859375,-0.5117188
3305,0,1.25,-0.3125,-0.005371094,-0.02929688,0.9951172,0.2636719,0.005859375,-0.5117188
3306,0,1.125,0,-0.02539063,-0.02099609,1.010742,0.2636719,0.005859375,-0.5117188
3310,0,0.4375,-0.4375,-0.01318359,-0.009277344,1.014648,0.2636719,0.005859375,-0.5117188
3311,0.875,0,-0.1875,-0.005371094,-0.02929688,0.9951172,0.2636719,0.005859375,-0.5117188
3315,1.25,-0.5625,0,-0.001464844,-0.02929688,0.9951172,0.2583008,-0.006347656,-0.5063477
3316,2,-0.6875,-0.0625,-0.001464844,-0.03320313,1.010742,0.2583008,-0.006347656,-0.5063477
3320,2,-1,0.3125,-0.01318359,-0.02490234,0.9873047,0.2583008,-0.006347656,-0.5063477
3321,2,-1,0.375,-0.001464844,-0.02099609,0.9912109,0.2558594,-0.006347656,-0.5141602
3325,1.5625,-1,0.4375,-0.001464844,-0.01318359,1.006836,0.2558594,-0.006347656,-0.5141602
3326,1.0625,-1.25,0.5,-0.005371094,-0.005371094,0.9990234,0.2558594,-0.006347656,-0.5141602
3330,0.875,-1.625,0.4375,-0.01708984,-0.009277344,1.014648,0.2558594,-0.006347656,-0.5141602
3331,1.125,-1.8125,0.5,-0.001464844,-0.0009765625,1.014648,0.2583008,0.008300781,-0.5195313
3335,1.25,-1.375,0.1875,-0.009277344,-0.02099609,0.9951172,0.2583008,0.008300781,-0.5195313
3338,0.75,-1.3125,0.0625,0.01025391,-0.02099609,0.9990234,0.2583008,0.008300781,-0.5195313
3342,0.25,-0.9375,0.3125,-0.005371094,-0.02099609,1.010742,0.2558594,0.01074219,-0.5117188
3343,0.1875,-0.5625,0.1875,0.001953125,0.002441406,1.018555,0.2558594,0.01074219,-0.5117188
3347,0.75,-0.125,0.125,0.001953125,-0.005371094,1.006836,0.2558594,0.01074219,-0.5117188
3348,1.6875,-0.625,0.0625,0.01025391,-0.009277344,1.00293,0.2558594,0.005859375,-0.5092773
3352,1.875,-1.125,0,-0.02539063,-0.005371094,1.00293,0.2558594,0.005859375,-0.5092773
3353,1.9375,-1.6875,-0.25,0.02587891,-0.01318359,0.9833984,0.2558594,0.005859375,-0.5092773
3357,1.125,-1.8125,-0.3125,-0.001464844,-0.02099609,0.9833984,0.2558594,0.005859375,-0.5092773
3358,0.0625,-1.8125,-0.5625,-0.01708984,-0.009277344,0.9990234,0.2558594,0.01318359,-0.5273438
3362,-0.1875,-1.875,-0.875,-0.001464844,-0.01318359,1.014648,0.2558594,0.01318359,-0.5273438
3363,0.1875,-1.6875,-0.8125,0.001953125,-0.0009765625,0.9990234,0.2558594,0.01318359,-0.5273438
3367,0.5,-1.8125,-0.9375,0.01025391,0.01416016,1.018555,0.2480469,0.005859375,-0.5141602
3368,1.3125,-1.5625,-1,-0.01708984,-0.01318359,1.018555,0.2480469,0.005859375,-0.5141602
3372,1.9375,-1.5,-0.875,0.01025391,-0.01318359,0.9833984,0.2480469,0.005859375,-0.5141602
3373,2.25,-0.875,-1.125,-0.01708984,-0.009277344,0.9990234,0.2480469,-0.00390625,-0.5170898
3377,2.3125,-0.5625,-0.8125,0.01806641,-0.009277344,0.9990234,0.2480469,-0.00390625,-0.5170898
3378,2.1875,-0.3125,-0.75,0.01025391,-0.03320313,0.9951172,0.2480469,-0.00390625,-0.5170898
3382,0.875,-0.0625,-0.5,-0.001464844,-0.03710938,0.9873047,0.2480469,-0.00390625,-0.5170898
3383,-0.0625,0,-0.3125,0.005859375,-0.01708984,0.9912109,0.2529297,0.01074219,-0.5092773
3387,0,0,0.125,0.01025391,-0.01708984,1.006836,0.2529297,0.01074219,-0.5092773
3388,0.5,-0.25,-0.0625,0.01025391,-0.005371094,1.026367,0.2529297,0.01074219,-0.5092773
3392,1.0625,0,0.1875,-0.001464844,-0.01708984,0.9912109,0.2529297,-0.001464844,-0.5170898
3393,1.1875,0.3125,0.375,0.001953125,-0.02099609,0.9873047,0.2529297,-0.001464844,-0.5170898
3397,0.6875,1.0625,0.4375,0.005859375,-0.009277344,1.014648,0.2529297,-0.001464844,-0.5170898
3398,1,1.1875,0.25,0.001953125,-0.02929688,0.9951172,0.2529297,-0.001464844,-0.5170898
3402,1.375,1.3125,0.4375,0.01806641,-0.02490234,1.010742,0.2529297,-0.001464844,-0.5170898
3403,1.9375,1.875,0.375,-0.02539063,-0.01708984,1.010742,0.2529297,-0.001464844,-0.5170898
3407,2.25,2.125,0.3125,0.02197266,-0.01318359,0.9873047,0.2529297,-0.001464844,-0.5170898
3408,2.4375,2.125,-0.125,-0.005371094,-0.005371094,0.9873047,0.2504883,-0.001464844,-0.5092773
3412,1.75,2,-0.0625,-0.005371094,-0.01708984,1.022461,0.2504883,-0.001464844,-0.5092773
3413,0.3125,2.1875,-0.1875,-0.01708984,-0.02099609,0.9833984,0.2504883,-0.001464844,-0.5092773
3417,-1.75,2.25,-0.3125,-0.005371094,-0.009277344,0.9951172,0.2583008,0.01074219,-0.5170898
3418,-2.6875,2.5,-0.5,0.01025391,-0.02490234,0.9873047,0.2583008,0.01074219,-0.5170898
3422,-2.375,2.8125,-0.75,-0.005371094,-0.009277344,1.006836,0.2583008,0.01074219,-0.5170898
3423,-1.375,2.75,-0.8125,-0.01318359,0.006347656,1.014648,0.2583008,0.01074219,-0.5170898
3427,-0.5625,2.5625,-0.9375,0.001953125,0.03857422,0.9990234,0.2451172,0.005859375,-0.5141602
3428,-0.6875,2.375,-1.0625,-0.001464844,0.01416016,0.9951172,0.2451172,0.005859375,-0.5141602
3432,-1.5,2.25,-1.125,-0.02929688,-0.005371094,0.9990234,0.2451172,0.005859375,-0.5141602
3433,-1.875,2.0625,-1.375,-0.005371094,-0.005371094,0.9951172,0.2583008,0.005859375,-0.5219727
