Gyroscope X (deg/s),Gyroscope Y (deg/s),Gyroscope Z (deg/s),Accelerometer X (g),Accelerometer Y (g),Accelerometer Z (g),Magnetometer X (G),Magnetometer Y (G),Magnetometer Z (G)
-1.0625,2,-1.0625,0.002929688,0.0009765625,1.022949,0.2607422,-0.02832031,-0.5595703
0,2.375,-1.1875,0.0078125,-0.004882813,1.029785,0.2607422,-0.02832031,-0.5595703
-0.375,3.25,-1,0.002929688,-0.005859375,1.020996,0.2607422,-0.02832031,-0.5595703
0.3125,3.375,-0.5,0.004882813,-0.006835938,1.008789,0.2631836,-0.04101563,-0.5581055
0.375,3.1875,-0.125,0.004882813,0.0009765625,1.018555,0.2631836,-0.04101563,-0.5581055
1.0625,3.375,0,0.00390625,0.002929688,1.021973,0.2631836,-0.04101563,-0.5581055
1.5625,3.5625,0.1875,-0.01757813,0.0078125,1.019531,0.2641602,-0.02929688,-0.5620117
1.8125,3.125,-0.4375,-0.01757813,0.02099609,1.027832,0.2641602,-0.02929688,-0.5620117
1.9375,3.375,-0.125,-0.03271484,0.02099609,1.026855,0.2641602,-0.02929688,-0.5620117
2.625,2.5625,0.625,-0.02978516,0.01660156,1.005859,0.2641602,-0.02929688,-0.5620117
2,0.875,0.125,-0.03955078,0.00390625,0.996582,0.2563477,-0.03271484,-0.5581055
1.6875,0.25,1.4375,-0.02294922,0.008789063,1.007813,0.2563477,-0.03271484,-0.5581055
1.5625,-0.25,2.5,-0.02294922,0.0078125,1.011719,0.2563477,-0.03271484,-0.5581055
0.3125,-1,2.4375,-0.02197266,0.01953125,1.016602,0.2607422,-0.02490234,-0.5649414
0.8125,-0.8125,1.875,-0.01660156,0.01855469,1.022949,0.2607422,-0.02490234,-0.5649414
0.5,-0.6875,1.9375,-0.01464844,0.01171875,1.019531,0.2607422,-0.02490234,-0.5649414
0.8125,-0.1875,2.125,-0.015625,0.01855469,1.023926,0.2607422,-0.03173828,-0.5605469
1.75,0.3125,1.9375,-0.009765625,0.02099609,1.028809,0.2607422,-0.03173828,-0.5605469
1.125,1.125,1.75,-0.01269531,0.02490234,1.024902,0.2607422,-0.03173828,-0.5605469
1.4375,1.5625,1.4375,-0.01074219,0.02099609,1.008789,0.2607422,-0.03173828,-0.5605469
1.9375,1.75,1.4375,-0.01757813,0.015625,1.020996,0.2641602,-0.03417969,-0.5454102
1.4375,1.4375,1.375,-0.02685547,0.01660156,1.010742,0.2641602,-0.03417969,-0.5454102
0.5625,1.5,0.375,-0.02685547,0.015625,1.023926,0.2641602,-0.03417969,-0.5454102
0.0625,0.875,0.0625,-0.02783203,0.02099609,1.028809,0.2548828,-0.03271484,-0.5649414
-0.3125,1.5,-1.1875,-0.02880859,0.02294922,1.027832,0.2548828,-0.03271484,-0.5649414
-0.9375,1.1875,-1.6875,-0.03076172,0.01953125,1.035645,0.2548828,-0.03271484,-0.5649414
-1.375,1.25,-2.25,-0.03173828,0.01855469,1.024902,0.2641602,-0.04199219,-0.5605469
-1.3125,1.3125,-2.375,-0.03076172,0.008789063,1.022949,0.2641602,-0.04199219,-0.5605469
-1.4375,0.875,-2.625,-0.02392578,0.0078125,1.028809,0.2641602,-0.04199219,-0.5605469
-1.125,1.5625,-2.0625,-0.02685547,0.0009765625,1.021973,0.2641602,-0.04199219,-0.5605469
-0.6875,1.3125,-1,-0.03173828,0.00390625,1.020996,0.2641602,-0.04199219,-0.5605469
-0.6875,1.875,-1.0625,-0.03662109,0.015625,1.024902,0.2641602,-0.04199219,-0.5605469
-0.875,1.4375,-1.3125,-0.03955078,0.01953125,1.025879,0.2641602,-0.04199219,-0.5605469
-0.625,0.9375,-1.375,-0.03662109,0.01660156,1.014648,0.2583008,-0.03173828,-0.5581055
0,0.1875,-1.1875,-0.04199219,0.02587891,1.020996,0.2583008,-0.03173828,-0.5581055
0.0625,-1,-0.4375,-0.03662109,0.02685547,1.023926,0.2583008,-0.03173828,-0.5581055
-0.375,-1.625,0.9375,-0.03173828,0.02392578,1.007813,0.265625,-0.03271484,-0.5566406
0.125,-2.875,1.8125,-0.03466797,0.01953125,1.00293,0.265625,-0.03271484,-0.5566406
-0.4375,-3.8125,3,-0.03466797,0.01855469,1.015625,0.265625,-0.03271484,-0.5566406
-0.5,-4.625,3.875,-0.03173828,0.02587891,1.012695,0.265625,-0.03271484,-0.5566406
-0.5,-4.4375,4.9375,-0.01464844,0.02685547,1.004883,0.265625,-0.03271484,-0.5566406
-0.25,-4.1875,5.125,-0.01074219,0.02587891,1.009766,0.265625,-0.03271484,-0.5566406
0.625,-5.1875,5.5625,-0.0078125,0.02880859,1.010742,0.265625,-0.03271484,-0.5566406
0.5,-4.375,5.75,-0.002929688,0.015625,1.010742,0.2583008,-0.03857422,-0.5581055
0.125,-3.5,5.4375,0.005859375,0.01171875,1.012695,0.2583008,-0.03857422,-0.5581055
-0.25,-2.9375,3.6875,0.004882813,0.02197266,1.008789,0.2583008,-0.03857422,-0.5581055
-1,-2.875,2.4375,0.01074219,0.01953125,1.015625,0.262207,-0.03417969,-0.5634766
-0.8125,-2.0625,1.0625,0.006835938,0.01855469,1.020996,0.262207,-0.03417969,-0.5634766
-1.4375,-1.75,0,-0.0009765625,0.01171875,1.019531,0.262207,-0.03417969,-0.5634766
-0.9375,-1.25,-1.1875,-0.009765625,0.01074219,1.026855,0.2514648,-0.04199219,-0.5595703
-2.125,-0.5625,-2.375,-0.005859375,0.01855469,1.012695,0.2514648,-0.04199219,-0.5595703
-2.5625,-0.6875,-2.8125,-0.01171875,0.002929688,1.024902,0.2514648,-0.04199219,-0.5595703
-2.875,-0.9375,-3.6875,-0.02294922,-0.004882813,1.017578,0.2514648,-0.04199219,-0.5595703
-3.1875,0.125,-3.1875,-0.01855469,0,1.020996,0.2563477,-0.03271484,-0.5620117
-3.25,0.0625,-2.375,-0.01953125,0.001953125,1.019531,0.2563477,-0.03271484,-0.5620117
-2.875,0,-2.8125,-0.03662109,0.006835938,1.033691,0.2563477,-0.03271484,-0.5620117
-1.5,-0.4375,-1.3125,-0.02880859,0.0078125,1.014648,0.2548828,-0.02929688,-0.5649414
-0.4375,-0.875,0.4375,-0.02978516,0.0009765625,1.006836,0.2548828,-0.02929688,-0.5649414
0.4375,-1.875,1.5625,-0.02587891,0.0009765625,1.010742,0.2548828,-0.02929688,-0.5649414
0.375,-2.5,2.3125,-0.02294922,0.0078125,1.008789,0.2631836,-0.03027344,-0.5581055
-0.0625,-2.0625,2.875,-0.01269531,0.006835938,1.010742,0.2631836,-0.03027344,-0.5581055
-0.125,-1.75,2.25,-0.02294922,0.01855469,1.016602,0.2631836,-0.03027344,-0.5581055
0.0625,-1.5625,1.875,-0.01464844,0.01464844,1.019531,0.2631836,-0.03027344,-0.5581055
0.75,-2.25,1.875,-0.015625,0.01171875,1.00293,0.2631836,-0.03027344,-0.5581055
0.875,-2.375,1.6875,-0.02294922,0.00390625,1.006836,0.2631836,-0.03027344,-0.5581055
0.125,-3.375,2.4375,-0.009765625,-0.00390625,0.9975586,0.2631836,-0.03027344,-0.5581055
-0.8125,-3.75,2.9375,-0.001953125,0,1.003906,0.2631836,-0.03613281,-0.5551758
-0.1875,-3.8125,2.8125,-0.002929688,0.01367188,1.003906,0.2631836,-0.03613281,-0.5551758
-0.9375,-4.8125,2.9375,0.0078125,0.01367188,1.006836,0.2631836,-0.03613281,-0.5551758
-0.3125,-4.75,2.4375,0.001953125,0.02099609,1.014648,0.2548828,-0.03759766,-0.5664063
-0.75,-4.25,1.6875,-0.01367188,0.01171875,1.010742,0.2548828,-0.03759766,-0.5664063
-1.125,-3.375,1.5625,-0.01367188,0.01171875,1.019531,0.2548828,-0.03759766,-0.5664063
-1.0625,-3.1875,1.5,-0.01953125,0.02197266,1.014648,0.2548828,-0.03759766,-0.5664063
-0.6875,-3.8125,1.25,-0.01660156,0.03173828,1.014648,0.2548828,-0.03759766,-0.5664063
-0.875,-3.25,1.5625,-0.01660156,0.03369141,1.012695,0.2548828,-0.03759766,-0.5664063
-0.625,-4.125,1.875,-0.02099609,0.03466797,1.007813,0.2548828,-0.03759766,-0.5664063
-0.8125,-4.1875,2.0625,-0.0078125,0.01660156,1.010742,0.2583008,-0.03613281,-0.5498047
-1.1875,-5.125,2.3125,-0.01660156,0.02490234,1.006836,0.2583008,-0.03613281,-0.5498047
-1.375,-3.375,2.1875,-0.01269531,0.02197266,1.016602,0.2583008,-0.03613281,-0.5498047
-1.5,-3.375,2.3125,-0.009765625,0.02197266,1.019531,0.2504883,-0.03857422,-0.5678711
-0.6875,-2.3125,2.6875,-0.01171875,0.02099609,1.027832,0.2504883,-0.03857422,-0.5678711
-0.8125,-2,1.9375,-0.01074219,0.015625,1.019531,0.2504883,-0.03857422,-0.5678711
-0.0625,-1.625,2.25,-0.01660156,0.02392578,1.025879,0.262207,-0.03515625,-0.546875
0.5,-1.25,2.25,-0.01074219,0.02783203,1.020996,0.262207,-0.03515625,-0.546875
-0.3125,-1.375,1.25,-0.01464844,0.03369141,1.028809,0.262207,-0.03515625,-0.546875
-0.1875,-1,1.9375,-0.01171875,0.03076172,1.012695,0.262207,-0.03515625,-0.546875
-0.5625,-1,1.75,-0.02099609,0.03076172,1.020996,0.2548828,-0.03515625,-0.5566406
-0.5625,-0.3125,1.625,-0.01269531,0.03076172,1.019531,0.2548828,-0.03515625,-0.5566406
-0.375,-0.9375,1.875,-0.01660156,0.02978516,1.019531,0.2548828,-0.03515625,-0.5566406
-0.5,-0.375,1.9375,-0.01757813,0.02783203,1.023926,0.2573242,-0.03759766,-0.5595703
-0.1875,-0.5,2,-0.02392578,0.02685547,1.018555,0.2573242,-0.03759766,-0.5595703
-0.5625,-0.875,1.6875,-0.03076172,0.02099609,1.023926,0.2573242,-0.03759766,-0.5595703
-0.375,-1.3125,2.0625,-0.03173828,0.02392578,1.012695,0.2529297,-0.03613281,-0.5581055
-0.1875,-2.5625,2.875,-0.02783203,0.00390625,1.012695,0.2529297,-0.03613281,-0.5581055
-0.75,-3.0625,3.3125,-0.02587891,0.006835938,1.012695,0.2529297,-0.03613281,-0.5581055
-1.0625,-3.4375,3.3125,-0.015625,0.001953125,1.015625,0.2529297,-0.03613281,-0.5581055
-0.8125,-3.75,4.1875,-0.00390625,0.0078125,1.025879,0.2583008,-0.02929688,-0.5620117
-0.5625,-4.375,4.6875,-0.001953125,0.001953125,1.014648,0.2583008,-0.02929688,-0.5620117
-0.625,-5.625,4.6875,-0.00390625,-0.015625,1,0.2583008,-0.02929688,-0.5620117
-0.5,-6.25,5.0625,-0.01171875,-0.015625,1.013672,0.2563477,-0.02832031,-0.5605469
-0.9375,-6.875,4.8125,-0.009765625,-0.008789063,1.019531,0.2563477,-0.02832031,-0.5605469
-0.6875,-6.25,5.0625,-0.0078125,0.0009765625,1.010742,0.2563477,-0.02832031,-0.5605469
-1.25,-7.8125,4.6875,-0.00390625,0.00390625,1.004883,0.2514648,-0.03271484,-0.5507813
-1.3125,-8.375,5,-0.006835938,0.009765625,1.009766,0.2514648,-0.03271484,-0.5507813
-1.25,-8.5625,4.3125,-0.0009765625,0.015625,1.023926,0.2514648,-0.03271484,-0.5507813
-1.625,-8.375,3.4375,0.005859375,0.015625,1.012695,0.2514648,-0.03271484,-0.5507813
-1.4375,-8.6875,3.5625,0.00390625,0.01660156,1.020996,0.2514648,-0.03271484,-0.5507813
-1.1875,-7.6875,3.625,0.006835938,0.015625,1.015625,0.2514648,-0.03271484,-0.5507813
-0.4375,-6.6875,2.625,0.02197266,0.015625,1.019531,0.2514648,-0.03271484,-0.5507813
0,-5.8125,2.5625,0.01367188,0.01464844,1.015625,0.2573242,-0.02832031,-0.5649414
-0.4375,-4.75,1.8125,0.01171875,0.001953125,1.020996,0.2573242,-0.02832031,-0.5649414
0.125,-3.5,1.0625,0.008789063,-0.00390625,1.012695,0.2573242,-0.02832031,-0.5649414
0.25,-3.1875,1.5625,0.009765625,0.0009765625,1.017578,0.2573242,-0.03271484,-0.5649414
1,-2.5,0.8125,0.0009765625,0.01171875,1.024902,0.2573242,-0.03271484,-0.5649414
1.0625,-1.0625,1,-0.00390625,0.02685547,1.009766,0.2573242,-0.03271484,-0.5649414
1.1875,-2.5625,1.75,-0.015625,0.01464844,1,0.2490234,-0.03613281,-0.574707
1.875,-3.75,2.8125,-0.01953125,0.00390625,1.005859,0.2490234,-0.03613281,-0.574707
1.8125,-4,4.3125,-0.01855469,0.006835938,1.00293,0.2490234,-0.03613281,-0.574707
1.5,-4.4375,5.8125,-0.02099609,0.01367188,1.007813,0.2490234,-0.03613281,-0.574707
1.625,-5,6.5625,-0.0078125,0.01855469,1.010742,0.2563477,-0.03857422,-0.5507813
1.5625,-5.5625,6.625,-0.0009765625,0.01660156,0.9975586,0.2563477,-0.03857422,-0.5507813
1.625,-6.25,6.25,0.0078125,0.02490234,1.006836,0.2563477,-0.03857422,-0.5507813
1.8125,-5.375,5.6875,0.01367188,0.008789063,1.013672,0.2539063,-0.03173828,-0.5551758
2,-6.6875,4.875,0.01464844,0.01757813,1.007813,0.2539063,-0.03173828,-0.5551758
1.25,-5,3.9375,0.02490234,0.009765625,1.012695,0.2539063,-0.03173828,-0.5551758
1.25,-5.25,3.25,0.02783203,0.005859375,1.011719,0.2514648,-0.03955078,-0.5595703
2.25,-4.375,2.5625,0.02783203,0.006835938,1.019531,0.2514648,-0.03955078,-0.5595703
2.25,-4.1875,2.5,0.02880859,0.01074219,1.019531,0.2514648,-0.03955078,-0.5595703
2.8125,-3.75,1.875,0.02880859,-0.00390625,1.004883,0.2514648,-0.03955078,-0.5595703
2.4375,-2.6875,2.1875,0.03271484,-0.00390625,1.006836,0.2529297,-0.03173828,-0.5537109
2.3125,-2.25,2.0625,0.02587891,-0.005859375,1.008789,0.2529297,-0.03173828,-0.5537109
3.125,-1.5625,1.8125,0.02685547,0.00390625,1.006836,0.2529297,-0.03173828,-0.5537109
2.8125,-2.1875,1.5625,0.02685547,0.001953125,0.9956055,0.2514648,-0.03173828,-0.5537109
2.3125,-2.1875,0.6875,0.02587891,0.002929688,1.016602,0.2514648,-0.03173828,-0.5537109
2.8125,-2,0.1875,0.01953125,0.00390625,1.023926,0.2514648,-0.03173828,-0.5537109
2.75,-0.9375,0.3125,0.01367188,0.01757813,1.024902,0.2504883,-0.03759766,-0.5703125
3.375,-0.4375,0.625,0.002929688,0.02099609,1.022949,0.2504883,-0.03759766,-0.5703125
4,-0.375,1.3125,0.006835938,0.02392578,1.023926,0.2504883,-0.03759766,-0.5703125
4.625,-0.1875,2.4375,-0.01660156,0.02197266,1.020996,0.2504883,-0.03759766,-0.5703125
5.125,0,3.5625,-0.03173828,0.03564453,1.018555,0.2504883,-0.03759766,-0.5703125
5.8125,0.1875,4.875,-0.03076172,0.03564453,1.022949,0.2504883,-0.03759766,-0.5703125
6,0.375,5.5,-0.03271484,0.04980469,1.020996,0.2504883,-0.03759766,-0.5703125
6.0625,-0.4375,5.75,-0.03759766,0.04785156,1.011719,0.2514648,-0.03857422,-0.5581055
5.125,-1.3125,6.25,-0.02392578,0.05078125,1.008789,0.2514648,-0.03857422,-0.5581055
5.375,-2.125,6.75,-0.01953125,0.04589844,1.010742,0.2514648,-0.03857422,-0.5581055
4.8125,-2.875,7.6875,-0.0009765625,0.03564453,1.006836,0.2514648,-0.03515625,-0.5581055
4.625,-2.875,7.0625,0.002929688,0.04296875,1.011719,0.2514648,-0.03515625,-0.5581055
4.1875,-2.25,7.25,0.004882813,0.04492188,1.004883,0.2514648,-0.03515625,-0.5581055
3.75,-2.875,5.4375,0.01367188,0.03857422,1.003906,0.2539063,-0.03759766,-0.5537109
3.125,-1.875,5.375,0.01074219,0.03271484,0.996582,0.2539063,-0.03759766,-0.5537109
3,-2,4.75,0.01367188,0.02490234,1.010742,0.2539063,-0.03759766,-0.5537109
2.6875,-1.375,5.5625,0.01757813,0.02099609,1.012695,0.2539063,-0.03759766,-0.5537109
2.75,-2.125,5.0625,0.02099609,0.01464844,1.014648,0.2529297,-0.03271484,-0.5595703
2.4375,-2.875,4.5625,0.01757813,0.01855469,1.000977,0.2529297,-0.03271484,-0.5595703
1.6875,-3.5625,3.75,0.02880859,0.03271484,0.9916992,0.2529297,-0.03271484,-0.5595703
0,-3.875,3.5625,0.02685547,0.0078125,0.9985352,0.2470703,-0.03759766,-0.5581055
-1.1875,-4.1875,3.375,0.02685547,0.01464844,1.006836,0.2470703,-0.03759766,-0.5581055
-1.4375,-3.4375,2.8125,0.03759766,0.01757813,1.012695,0.2470703,-0.03759766,-0.5581055
-1.625,-3.125,1.875,0.02490234,0.02197266,1.014648,0.2446289,-0.03515625,-0.5620117
-1.3125,-1.8125,2.3125,0.01367188,0.02587891,1.015625,0.2446289,-0.03515625,-0.5620117
-0.375,-1.875,3,0.01074219,0.02197266,1.012695,0.2446289,-0.03515625,-0.5620117
0,-1.1875,3.625,0.004882813,0.03076172,1.017578,0.2446289,-0.03515625,-0.5620117
0.375,-1.125,3.875,-0.0078125,0.02978516,1.006836,0.2421875,-0.03271484,-0.5634766
1.0625,-1.4375,4.9375,-0.01660156,0.03271484,1.020996,0.2421875,-0.03271484,-0.5634766
0.9375,-0.5,5.4375,-0.01464844,0.04199219,1.018555,0.2421875,-0.03271484,-0.5634766
1.75,-0.75,5.6875,-0.0078125,0.04052734,1.025879,0.2514648,-0.03271484,-0.5522461
2.3125,-0.3125,5.9375,-0.01464844,0.04492188,1.012695,0.2514648,-0.03271484,-0.5522461
1.8125,-0.3125,4.625,-0.0009765625,0.03564453,1.019531,0.2514648,-0.03271484,-0.5522461
2.625,0.125,4.5,-0.00390625,0.03076172,1.010742,0.2514648,-0.03515625,-0.5551758
2.375,0,3.625,-0.0009765625,0.02099609,1.016602,0.2514648,-0.03515625,-0.5551758
2.625,0.3125,3.3125,0.0009765625,0.02392578,1.023926,0.2514648,-0.03515625,-0.5551758
2.375,1.6875,3.0625,0.01953125,0.02392578,1.023926,0.2514648,-0.03515625,-0.5551758
2.75,2,2.1875,0.01660156,0.01757813,1.015625,0.2514648,-0.03515625,-0.5551758
3,1.6875,1.4375,0.01855469,0.01855469,1.018555,0.2514648,-0.03515625,-0.5551758
3.25,1.375,0.9375,0.01660156,0.01269531,1.016602,0.2514648,-0.03515625,-0.5551758
2.6875,1.0625,0.875,0.015625,0.02294922,1.015625,0.2470703,-0.03613281,-0.5664063
2.8125,1.125,0.875,0.009765625,0.01660156,1.015625,0.2470703,-0.03613281,-0.5664063
2.125,0.625,0.5,0.01464844,0.02587891,1.019531,0.2470703,-0.03613281,-0.5664063
2.5,0.875,0.3125,0.01269531,0.02978516,1.019531,0.2529297,-0.03857422,-0.5507813
2.375,1.25,-0.3125,0.01464844,0.03271484,1.021973,0.2529297,-0.03857422,-0.5507813
1.6875,0.375,-0.75,0.008789063,0.03173828,1.004883,0.2529297,-0.03857422,-0.5507813
1.875,-0.0625,-0.1875,0.009765625,0.03759766,1.007813,0.2529297,-0.03857422,-0.5507813
2.9375,0.0625,-0.1875,-0.004882813,0.02685547,1.008789,0.2529297,-0.03857422,-0.5507813
2.9375,-1.3125,0.625,0,0.02783203,1.014648,0.2529297,-0.03857422,-0.5507813
3.875,-0.125,0.9375,-0.008789063,0.03662109,1.021973,0.2529297,-0.03857422,-0.5507813
4.1875,-0.9375,1.0625,-0.00390625,0.03857422,1.029785,0.2456055,-0.03955078,-0.5732422
3.5625,-0.875,0.1875,-0.00390625,0.03955078,1.020996,0.2456055,-0.03955078,-0.5732422
3.8125,-0.625,0.8125,0.0009765625,0.03564453,1.019531,0.2456055,-0.03955078,-0.5732422
4.0625,-1.3125,0.1875,0.004882813,0.03564453,1.008789,0.2421875,-0.03173828,-0.5605469
3.8125,-1.3125,0.9375,0.00390625,0.03173828,1.010742,0.2421875,-0.03173828,-0.5605469
4.0625,-1.25,1,0.01464844,0.03857422,1.012695,0.2421875,-0.03173828,-0.5605469
3.1875,-0.6875,0.6875,0.01757813,0.02978516,1.021973,0.2480469,-0.03173828,-0.5620117
4.3125,0.125,0.4375,0.01757813,0.04052734,1.013672,0.2480469,-0.03173828,-0.5620117
3.5,0.75,-0.4375,0.01660156,0.04492188,1.006836,0.2480469,-0.03173828,-0.5620117
4,1.5625,0,0.01171875,0.03857422,1.012695,0.2480469,-0.03173828,-0.5620117
4.1875,2.1875,0,0.01464844,0.04199219,1.003906,0.2529297,-0.03613281,-0.5581055
4.375,2.1875,-0.5625,0.01074219,0.03564453,1.013672,0.2529297,-0.03613281,-0.5581055
4.0625,3,-2.0625,0.01171875,0.04052734,1.019531,0.2529297,-0.03613281,-0.5581055
4.125,3.75,-2.4375,0.01367188,0.04296875,1.013672,0.2514648,-0.04785156,-0.5566406
3.875,3.3125,-3.3125,0.01269531,0.04882813,1.015625,0.2514648,-0.04785156,-0.5566406
4.625,3.6875,-4.125,0.009765625,0.03955078,1.012695,0.2514648,-0.04785156,-0.5566406
4.125,3.9375,-4.0625,0.015625,0.04296875,1.015625,0.2490234,-0.04101563,-0.5595703
4.625,4.5625,-4.75,0.01367188,0.04052734,1.012695,0.2490234,-0.04101563,-0.5595703
5.5,5.25,-5.125,0.01171875,0.04199219,1.019531,0.2490234,-0.04101563,-0.5595703
6.375,6.3125,-5.5,0,0.04589844,1.018555,0.2490234,-0.04101563,-0.5595703
8.125,6.375,-4.625,0.0009765625,0.06152344,1.021973,0.2490234,-0.04101563,-0.5595703
10.0625,7.6875,-4.5,-0.002929688,0.06689453,1.021973,0.2490234,-0.04101563,-0.5595703
11.3125,8.375,-4.5,-0.001953125,0.07275391,1.023926,0.2490234,-0.04101563,-0.5595703
12.125,10,-4.1875,-0.002929688,0.07958984,1.028809,0.2529297,-0.03759766,-0.5522461
13,10.875,-5.625,-0.006835938,0.0859375,1.019531,0.2529297,-0.03759766,-0.5522461
13.3125,11.375,-6.5625,0.0009765625,0.08251953,1.033691,0.2529297,-0.03759766,-0.5522461
13.6875,12.1875,-9.375,-0.0009765625,0.07958984,1.012695,0.2514648,-0.03613281,-0.5566406
13.6875,13.8125,-10.625,-0.008789063,0.08056641,1.022949,0.2514648,-0.03613281,-0.5566406
14.1875,14.8125,-12.6875,-0.01171875,0.07666016,1.027832,0.2514648,-0.03613281,-0.5566406
14.3125,16.4375,-15.875,-0.009765625,0.08691406,1.031738,0.2514648,-0.03613281,-0.5566406
14.125,15.8125,-18.6875,-0.01855469,0.08154297,1.007813,0.2514648,-0.03613281,-0.5566406
13.0625,16.625,-21.4375,-0.01074219,0.07666016,1.019531,0.2514648,-0.03613281,-0.5566406
12.5,17.0625,-23.4375,-0.009765625,0.08496094,0.996582,0.2514648,-0.03613281,-0.5566406
11,17.4375,-26.8125,-0.006835938,0.1005859,1.011719,0.2563477,-0.04443359,-0.5551758
10.125,18.75,-30.3125,-0.01171875,0.1108398,1.00293,0.2563477,-0.04443359,-0.5551758
7.875,20,-35.8125,-0.01269531,0.1225586,1.000977,0.2563477,-0.04443359,-0.5551758
5.9375,21.9375,-41.125,-0.01660156,0.1147461,1.007813,0.2563477,-0.04345703,-0.5620117
4.3125,22.0625,-44.3125,-0.02197266,0.09765625,0.9946289,0.2563477,-0.04345703,-0.5620117
2.3125,22.5625,-48.625,-0.03076172,0.09667969,0.9946289,0.2563477,-0.04345703,-0.5620117
0.4375,22.625,-52.625,-0.02978516,0.0859375,0.9926758,0.2631836,-0.05712891,-0.5581055
-1.0625,23.625,-59.875,-0.02099609,0.1206055,1.044922,0.2631836,-0.05712891,-0.5581055
-4.1875,25.875,-68.5,-0.01367188,0.1279297,1.070801,0.2631836,-0.05712891,-0.5581055
-6.8125,27.75,-76.375,-0.0009765625,0.1049805,1.07373,0.2631836,-0.05712891,-0.5581055
-10.1875,27.9375,-81.3125,0.01660156,0.05859375,1.036621,0.2631836,-0.04882813,-0.5649414
-12.5,27.9375,-85.25,0.03369141,0.03271484,1.011719,0.2631836,-0.04882813,-0.5649414
-14.375,25.6875,-88.25,0.03759766,0.02392578,0.9975586,0.2631836,-0.04882813,-0.5649414
-16.375,26.875,-90.625,0.03857422,0.02880859,1.024902,0.2607422,-0.04199219,-0.5551758
-18.4375,29,-96.6875,0.03564453,0.02783203,1.023926,0.2607422,-0.04199219,-0.5551758
-20.5625,30.875,-97.4375,0.03662109,0.04052734,1.012695,0.2607422,-0.04199219,-0.5551758
-21.9375,32.5,-102.3125,0.01855469,0.01074219,1.023926,0.2783203,-0.04443359,-0.5620117
-24.875,34,-109.75,0.0078125,0.03271484,1.016602,0.2783203,-0.04443359,-0.5620117
-26.8125,34.8125,-110.75,-0.00390625,0.01464844,1.006836,0.2783203,-0.04443359,-0.5620117
-28.625,35.5625,-113.1875,-0.02490234,-0.01464844,0.987793,0.2783203,-0.04443359,-0.5620117
-32.8125,33.1875,-114.875,-0.03955078,-0.03466797,0.9887695,0.2758789,-0.04345703,-0.5605469
-36.4375,29.8125,-116.4375,-0.06396484,-0.03076172,0.9975586,0.2758789,-0.04345703,-0.5605469
-37.6875,29.5625,-120.6875,-0.0859375,-0.01367188,1.078613,0.2758789,-0.04345703,-0.5605469
-41,30,-126.8125,-0.08056641,0.015625,1.09082,0.2758789,-0.046875,-0.5620117
-42.8125,30.3125,-134.8125,-0.08251953,0.01464844,1.111816,0.2758789,-0.046875,-0.5620117
-44.625,28.125,-143.25,-0.08154297,0.02490234,1.100586,0.2758789,-0.046875,-0.5620117
-45.9375,28.125,-151.5625,-0.07861328,0.01367188,1.064941,0.2832031,-0.04101563,-0.5620117
-49.25,26.5,-159.625,-0.06298828,0.02197266,1.066895,0.2832031,-0.04101563,-0.5620117
-53.125,25,-167.375,-0.04394531,0.01464844,1.006836,0.2832031,-0.04101563,-0.5620117
-57.4375,24.1875,-174.0625,-0.04199219,0.01171875,1.009766,0.2832031,-0.04101563,-0.5620117
-61.6875,23.6875,-179.6875,-0.02978516,0.01953125,0.9916992,0.2832031,-0.04101563,-0.5620117
-64.25,22.5,-183.75,-0.01464844,0.01269531,0.9467773,0.2832031,-0.04101563,-0.5620117
-64,23.9375,-186,-0.02783203,0.005859375,0.956543,0.2832031,-0.04101563,-0.5620117
-54.5625,42.625,-187.625,-0.01171875,0.02099609,1.45166,0.2910156,-0.02832031,-0.5551758
-61.625,40.1875,-194.1875,-0.03857422,0.02978516,0.8959961,0.2910156,-0.02832031,-0.5551758
-63.25,38.1875,-199.0625,0.0009765625,0.09277344,0.9287109,0.2910156,-0.02832031,-0.5551758
-59.5625,36.5,-202.5,-0.03662109,0.04882813,0.9326172,0.296875,-0.0234375,-0.5566406
-58.6875,30.5625,-206.375,-0.06054688,0.01074219,0.9277344,0.296875,-0.0234375,-0.5566406
-57.25,26.375,-210.4375,-0.1108398,-0.008789063,0.9526367,0.296875,-0.0234375,-0.5566406
-54.9375,22.875,-215.4375,-0.1518555,-0.01464844,1.006836,0.296875,-0.0234375,-0.5566406
-51,21.0625,-221.8125,-0.1787109,-0.01953125,1.051758,0.296875,-0.0234375,-0.5566406
-48.5625,19.125,-226.625,-0.1889648,-0.02880859,1.031738,0.296875,-0.0234375,-0.5566406
-35.5,26.5,-228.5625,-0.2158203,-0.1088867,1.103516,0.296875,-0.0234375,-0.5566406
-35.125,31.875,-236.3125,-0.1977539,-0.01464844,1.058594,0.3051758,-0.01416016,-0.5649414
-34.4375,31,-241.625,-0.1499023,0.001953125,1.119629,0.3051758,-0.01416016,-0.5649414
-33.5,25.9375,-242.5,-0.1547852,-0.04589844,1.013672,0.3051758,-0.01416016,-0.5649414
-35,24.25,-243.5,-0.1489258,-0.02294922,0.9516602,0.300293,-0.01074219,-0.5664063
-37.3125,19.5625,-242.9375,-0.140625,-0.03759766,0.9516602,0.300293,-0.01074219,-0.5664063
-40.25,16.875,-241.5625,-0.1577148,-0.05371094,0.9555664,0.300293,-0.01074219,-0.5664063
-42.875,9.75,-238.3125,-0.1489258,-0.09570313,0.9799805,0.3110352,-0.01757813,-0.5703125
-42.875,8.1875,-235.9375,-0.1269531,-0.1098633,0.987793,0.3110352,-0.01757813,-0.5703125
-41.6875,7.375,-232.0625,-0.1206055,-0.1235352,1.043945,0.3110352,-0.01757813,-0.5703125
-43.1875,4.8125,-228.5,-0.08886719,-0.125,1.025879,0.3110352,-0.01757813,-0.5703125
-45.375,2.1875,-223.25,-0.05273438,-0.1508789,1.019531,0.3085938,-0.01318359,-0.5581055
-47.25,-2.1875,-214.875,-0.04394531,-0.2109375,1.020996,0.3085938,-0.01318359,-0.5581055
-48.5,-4.3125,-206.5,-0.03369141,-0.1958008,0.9829102,0.3085938,-0.01318359,-0.5581055
-50.125,-6.9375,-197.5,-0.02783203,-0.190918,1.005859,0.3095703,-0.007324219,-0.5634766
-52.0625,-9.25,-191.5,-0.02392578,-0.1699219,1.003906,0.3095703,-0.007324219,-0.5634766
-51.375,-10.625,-187.25,-0.01367188,-0.1508789,0.9897461,0.3095703,-0.007324219,-0.5634766
-48.25,-14.0625,-187.0625,0.0078125,-0.06054688,0.9067383,0.3085938,-0.00390625,-0.5703125
-41.8125,-19.6875,-188.625,0.03271484,-0.0009765625,0.8735352,0.3085938,-0.00390625,-0.5703125
-33.4375,-24.375,-190.75,0.03857422,-0.015625,0.8896484,0.3085938,-0.00390625,-0.5703125
-23.5,-27.875,-191.625,0.03955078,-0.07275391,0.9179688,0.3085938,-0.00390625,-0.5703125
-12.6875,-29.875,-189.6875,0.04589844,-0.1445313,1.00293,0.3085938,-0.00390625,-0.5703125
-2.0625,-28.8125,-187.1875,0.03271484,-0.1679688,1.011719,0.3085938,-0.00390625,-0.5703125
7.75,-26.6875,-185.25,0.01953125,-0.190918,1.066895,0.3085938,-0.00390625,-0.5703125
16.5,-21.0625,-186.375,0.02099609,-0.1757813,1.100586,0.2993164,0.0004882813,-0.5581055
22.5,-15.9375,-188.25,0.006835938,-0.1708984,1.09082,0.2993164,0.0004882813,-0.5581055
27.0625,-10.125,-192.25,-0.002929688,-0.1655273,1.072754,0.2993164,0.0004882813,-0.5581055
28.6875,-6.125,-196.8125,-0.02099609,-0.1787109,1.025879,0.2993164,-0.001464844,-0.5664063
27.75,-3.25,-200.625,-0.04052734,-0.1928711,1.006836,0.2993164,-0.001464844,-0.5664063
24.4375,0,-204.8125,-0.05371094,-0.1948242,1.00293,0.2993164,-0.001464844,-0.5664063
19.5625,2,-209.625,-0.06054688,-0.171875,1.003906,0.2993164,-0.001464844,-0.5664063
15.125,5.4375,-213.75,-0.06689453,-0.1567383,1.001953,0.2993164,-0.001464844,-0.5664063
10.25,8.75,-217.3125,-0.07763672,-0.1577148,0.9946289,0.2993164,-0.001464844,-0.5664063
4.3125,12.9375,-219.25,-0.06591797,-0.140625,1.026855,0.2993164,-0.001464844,-0.5664063
-0.4375,15.5625,-218.125,-0.06884766,-0.1645508,1.026855,0.2983398,-0.009765625,-0.5703125
-5.6875,16.1875,-213.6875,-0.07666016,-0.1938477,1.042969,0.2983398,-0.009765625,-0.5703125
-10.4375,18.8125,-206.1875,-0.08056641,-0.1918945,1.035645,0.2983398,-0.009765625,-0.5703125
-14.75,19.625,-197.4375,-0.08496094,-0.1728516,1.030762,0.3076172,-0.01318359,-0.574707
-19,18.8125,-189.75,-0.07666016,-0.1855469,0.9628906,0.3076172,-0.01318359,-0.574707
-23.25,15.3125,-180.5,-0.07275391,-0.2197266,0.9526367,0.3076172,-0.01318359,-0.574707
-27.0625,14.5,-173.125,-0.08154297,-0.2128906,0.9628906,0.3110352,0.004882813,-0.574707
-29.5625,7.375,-166.8125,-0.08251953,-0.1928711,0.9135742,0.3110352,0.004882813,-0.574707
-30.875,2.4375,-163.3125,-0.07666016,-0.171875,0.9536133,0.3110352,0.004882813,-0.574707
-30.8125,-2.4375,-160.9375,-0.07861328,-0.1459961,0.9438477,0.3110352,0.004882813,-0.574707
-29.25,-7.9375,-157.5625,-0.06298828,-0.1767578,0.9765625,0.3120117,-0.00390625,-0.5776367
-28.9375,-12.125,-155,-0.06298828,-0.190918,0.9609375,0.3120117,-0.00390625,-0.5776367
-26,-17.3125,-152.1875,-0.046875,-0.1567383,0.9438477,0.3120117,-0.00390625,-0.5776367
-19.375,-24,-152.625,-0.03662109,0.001953125,0.8579102,0.3134766,-0.0004882813,-0.5717773
-5.875,-35.375,-155.5,-0.008789063,0.05957031,0.8027344,0.3134766,-0.0004882813,-0.5717773
9.9375,-40.5,-158,0.140625,0.08789063,0.7109375,0.3134766,-0.0004882813,-0.5717773
18.75,-62.25,-165.0625,-0.05078125,-0.05761719,1.092773,0.3085938,-0.00390625,-0.574707
34.875,-54,-162.4375,0.08398438,-0.04980469,1.003906,0.3085938,-0.00390625,-0.574707
45.75,-52.0625,-158.6875,0.1088867,-0.07080078,0.9726563,0.3085938,-0.00390625,-0.574707
53.25,-53.6875,-157.4375,0.1079102,-0.112793,1.020996,0.3085938,-0.00390625,-0.574707
57.3125,-52.375,-155.125,0.07861328,-0.1386719,1.029785,0.3027344,-0.00390625,-0.5703125
59.6875,-47.8125,-152.75,0.06396484,-0.1748047,1.060547,0.3027344,-0.00390625,-0.5703125
60.875,-44.5625,-148.8125,0.05957031,-0.2109375,1.088867,0.3027344,-0.00390625,-0.5703125
60.0625,-39.625,-142.8125,0.04052734,-0.2177734,1.099609,0.2958984,-0.004882813,-0.5664063
56.75,-34.875,-137.125,0.06396484,-0.2236328,1.094727,0.2958984,-0.004882813,-0.5664063
51.0625,-31.4375,-132.0625,0.05664063,-0.2275391,1.088867,0.2958984,-0.004882813,-0.5664063
44.125,-28.3125,-127.3125,0.06298828,-0.2197266,1.09668,0.2958984,-0.009765625,-0.5703125
38.5,-23.0625,-125.3125,0.08056641,-0.1679688,1.061523,0.2958984,-0.009765625,-0.5703125
33.5625,-19.4375,-123.375,0.06982422,-0.1445313,1.042969,0.2958984,-0.009765625,-0.5703125
30.1875,-16,-122.4375,0.0546875,-0.1166992,1.039551,0.2958984,-0.009765625,-0.5703125
27.25,-11.9375,-121.0625,0.05566406,-0.1206055,1.019531,0.2958984,-0.009765625,-0.5703125
25.6875,-9.5,-118.75,0.05859375,-0.1357422,1.020996,0.2958984,-0.009765625,-0.5703125
25.3125,-5.875,-114.875,0.03955078,-0.1806641,1.045898,0.2958984,-0.009765625,-0.5703125
24.8125,-3.5,-108.25,0.02099609,-0.190918,1.051758,0.2910156,-0.02001953,-0.5678711
25.3125,-3.5625,-100.875,0.01855469,-0.190918,1.056641,0.2910156,-0.02001953,-0.5678711
25.5625,-1.0625,-98.125,0.01464844,-0.1845703,1.092773,0.2910156,-0.02001953,-0.5678711
25.125,0.375,-98,0.03076172,-0.1318359,1.074707,0.2866211,-0.03027344,-0.5717773
22.5,1.625,-96.0625,0.03955078,-0.1166992,1.054688,0.2866211,-0.03027344,-0.5717773
18.625,1.375,-102.5625,0.06689453,-0.07958984,0.987793,0.2866211,-0.03027344,-0.5717773
12.75,-2.0625,-104.5625,0.05371094,-0.07275391,1.009766,0.2807617,-0.01904297,-0.5703125
7.0625,-2.5,-112.5,0.04296875,-0.06787109,1.000977,0.2807617,-0.01904297,-0.5703125
3.5625,-3.625,-117.0625,0.04980469,-0.05175781,0.9716797,0.2807617,-0.01904297,-0.5703125
0.6875,-8,-120.5,0.08496094,-0.03759766,0.9477539,0.2807617,-0.01904297,-0.5703125
-0.625,-12.125,-124.6875,0.06396484,-0.01464844,0.9736328,0.2866211,-0.02587891,-0.5717773
2,-10.375,-127.5625,0.03466797,0.06396484,0.9316406,0.2866211,-0.02587891,-0.5717773
8.25,-18,-131.25,0.1118164,0.02294922,0.9287109,0.2866211,-0.02587891,-0.5717773
14.125,-21.5625,-128.75,0.1035156,-0.04052734,0.9189453,0.2885742,-0.03173828,-0.5732422
19.0625,-21.4375,-122.5,0.1386719,-0.1118164,0.9775391,0.2885742,-0.03173828,-0.5732422
24.6875,-20.6875,-113.9375,0.1235352,-0.1347656,1.013672,0.2885742,-0.03173828,-0.5732422
27.1875,-20.625,-106.75,0.1616211,-0.1289063,1.039551,0.2924805,-0.03613281,-0.574707
27.25,-16.75,-97.0625,0.152832,-0.1235352,1.072754,0.2924805,-0.03613281,-0.574707
25.375,-13.75,-89.125,0.1625977,-0.125,1.072754,0.2924805,-0.03613281,-0.574707
23.625,-9,-81,0.1679688,-0.1176758,1.071777,0.2924805,-0.03613281,-0.574707
17.5625,-6.5,-72.6875,0.1835938,-0.1079102,1.039551,0.2885742,-0.03173828,-0.5620117
12.8125,-3.375,-65.125,0.1748047,-0.09179688,1.044922,0.2885742,-0.03173828,-0.5620117
9.3125,1,-57.875,0.1557617,-0.07861328,1.040527,0.2885742,-0.03173828,-0.5620117
5.5625,5.375,-51.75,0.1308594,-0.07861328,1.040527,0.2900391,-0.03173828,-0.5620117
2.5625,10.4375,-46,0.1235352,-0.07958984,1.042969,0.2900391,-0.03173828,-0.5620117
2.125,14.1875,-40.1875,0.08496094,-0.1069336,1.035645,0.2900391,-0.03173828,-0.5620117
1.4375,16.1875,-35.1875,0.06298828,-0.1147461,1.031738,0.2910156,-0.03271484,-0.5703125
2.5625,17.3125,-32.6875,0.05566406,-0.1166992,1.039551,0.2910156,-0.03271484,-0.5703125
2.75,17.9375,-30.125,0.02490234,-0.1147461,1.041992,0.2910156,-0.03271484,-0.5703125
3.5625,18.5,-30.3125,0.01464844,-0.1176758,1.034668,0.2910156,-0.03271484,-0.5703125
3.875,18.0625,-32.6875,0.001953125,-0.08398438,1.036621,0.2910156,-0.03271484,-0.5703125
3.5625,18.8125,-38.625,0.01074219,-0.02197266,1.054688,0.2910156,-0.03271484,-0.5703125
2.375,19.8125,-45.75,0.01464844,-0.02685547,1.042969,0.2910156,-0.03271484,-0.5703125
0,21.1875,-52.375,0.01269531,-0.03173828,1.026855,0.296875,-0.03759766,-0.574707
-1.4375,20.875,-57.25,0.00390625,-0.04394531,1.019531,0.296875,-0.03759766,-0.574707
-3.125,21.625,-59.8125,0.002929688,-0.04052734,1.09668,0.296875,-0.03759766,-0.574707
-2.3125,29.625,-59.875,0.04980469,-0.01660156,0.9155273,0.2910156,-0.03857422,-0.5693359
-4.5625,14.4375,-63.3125,0.03271484,-0.07373047,0.987793,0.2910156,-0.03857422,-0.5693359
-6.5,11.6875,-65.25,0.04785156,-0.07861328,1.031738,0.2910156,-0.03857422,-0.5693359
-6.75,13.6875,-63.9375,0.03662109,-0.06591797,1.032715,0.3037109,-0.03271484,-0.5732422
-3.25,12.625,-61.5625,0.05566406,-0.05957031,0.9819336,0.3037109,-0.03271484,-0.5732422
2.9375,9.3125,-58.375,0.0546875,-0.07177734,0.9628906,0.3037109,-0.03271484,-0.5732422
8.875,5.1875,-52.9375,0.03564453,-0.08056641,0.9785156,0.3037109,-0.03271484,-0.5732422
12.125,0,-48.6875,0.03662109,-0.07763672,0.9819336,0.2993164,-0.03955078,-0.5732422
13.625,-2.3125,-44.125,0.0078125,-0.06884766,1.020996,0.2993164,-0.03955078,-0.5732422
14.4375,-5.9375,-43.4375,0.1289063,-0.02880859,0.921875,0.2993164,-0.03955078,-0.5732422
10.5,-10.375,-47.0625,0.1259766,-0.07177734,1.071777,0.2958984,-0.04199219,-0.5791016
7.8125,-6.0625,-46.5,0.1518555,-0.07177734,1.099609,0.2958984,-0.04199219,-0.5791016
8,0.4375,-46.9375,0.1708984,-0.02685547,1.091797,0.2958984,-0.04199219,-0.5791016
9.9375,6.4375,-47,0.159668,0.0009765625,1.049805,0.2924805,-0.03613281,-0.5664063
12.875,10.6875,-47.4375,0.159668,0.002929688,1.031738,0.2924805,-0.03613281,-0.5664063
15.3125,14.625,-47.125,0.1357422,0.01269531,1.039551,0.2924805,-0.03613281,-0.5664063
16.4375,17.0625,-46.1875,0.1269531,0,1.036621,0.2924805,-0.03613281,-0.5664063
16.3125,20.3125,-44.375,0.09667969,-0.006835938,1.039551,0.296875,-0.03857422,-0.5664063
16.125,23,-40.6875,0.07958984,-0.03466797,1.012695,0.296875,-0.03857422,-0.5664063
15.5,23.6875,-35.9375,0.08154297,-0.046875,0.9746094,0.296875,-0.03857422,-0.5664063
15.875,22.5625,-30.5625,0.07763672,-0.04492188,0.96875,0.2958984,-0.04541016,-0.5717773
15.8125,23.125,-25.5625,0.06689453,-0.02880859,0.987793,0.2958984,-0.04541016,-0.5717773
15.3125,24.3125,-21.875,0.05664063,-0.02783203,0.9887695,0.2958984,-0.04541016,-0.5717773
12.6875,23.125,-19.125,0.0546875,-0.01855469,0.9829102,0.3085938,-0.03955078,-0.5664063
11.0625,21.6875,-18.6875,0.0546875,-0.01464844,0.9887695,0.3085938,-0.03955078,-0.5664063
10.9375,19.75,-18.0625,0.04882813,0.02294922,0.9667969,0.3085938,-0.03955078,-0.5664063
11,16.125,-19.125,0.046875,0.04052734,0.9599609,0.3085938,-0.03955078,-0.5664063
12.9375,13.1875,-21.8125,0.05371094,0.04589844,0.9907227,0.3085938,-0.03955078,-0.5664063
13.4375,12.8125,-26.1875,0.05761719,0.03173828,1.024902,0.3085938,-0.03955078,-0.5664063
14.25,15,-29.625,0.06298828,0.015625,1.025879,0.3085938,-0.03955078,-0.5664063
14.1875,17.4375,-33.0625,0.05371094,-0.0009765625,1.031738,0.3076172,-0.05029297,-0.5693359
15.0625,19.6875,-35.0625,0.04785156,0.001953125,1.028809,0.3076172,-0.05029297,-0.5693359
15.6875,21.5,-36.5625,0.02783203,-0.01660156,1.016602,0.3076172,-0.05029297,-0.5693359
15.5,22.875,-36.5,0.01074219,-0.01855469,1.004883,0.3134766,-0.05273438,-0.5717773
15.625,24.3125,-35.875,0.0078125,-0.01171875,1.011719,0.3134766,-0.05273438,-0.5717773
16.125,24.9375,-34.4375,-0.001953125,-0.002929688,0.9946289,0.3134766,-0.05273438,-0.5717773
13.875,24.875,-33.25,-0.015625,0,1.019531,0.3134766,-0.05273438,-0.5717773
11.0625,22.75,-31.1875,-0.01953125,-0.005859375,0.9926758,0.3134766,-0.05273438,-0.5717773
8.125,20.0625,-28.1875,-0.03271484,-0.01757813,0.9887695,0.3134766,-0.05273438,-0.5717773
4.75,17.25,-23.75,-0.03466797,-0.04882813,0.9785156,0.3134766,-0.05273438,-0.5717773
3.125,13.3125,-19.0625,-0.03759766,-0.05175781,0.9765625,0.3212891,-0.05029297,-0.5703125
2.375,11.8125,-15.6875,-0.02197266,-0.03369141,1.005859,0.3212891,-0.05029297,-0.5703125
1.375,11.625,-13.375,-0.02880859,-0.0078125,1.012695,0.3212891,-0.05029297,-0.5703125
1.875,12.75,-11.9375,-0.01171875,0.002929688,1.007813,0.3168945,-0.05712891,-0.5717773
2.5625,14.1875,-12.1875,-0.02099609,0.02294922,1.010742,0.3168945,-0.05712891,-0.5717773
2.625,15.75,-12.4375,-0.01660156,0.03466797,1,0.3168945,-0.05712891,-0.5717773
1.8125,16,-11.75,-0.02587891,0.02392578,0.9956055,0.3227539,-0.05371094,-0.5649414
1.9375,15,-9.5625,-0.03076172,0.01269531,0.9916992,0.3227539,-0.05371094,-0.5649414
0.8125,15.3125,-7.3125,-0.03955078,-0.01367188,0.9946289,0.3227539,-0.05371094,-0.5649414
-0.875,13.625,-3.1875,-0.03955078,-0.02197266,0.9848633,0.3227539,-0.05371094,-0.5649414
-1.25,11.375,0.5625,-0.04394531,-0.01367188,0.9936523,0.3227539,-0.05371094,-0.5605469
-1.5625,9.75,1.625,-0.04882813,0.006835938,0.9956055,0.3227539,-0.05371094,-0.5605469
-1.3125,7.8125,2,-0.04296875,0.01367188,0.996582,0.3227539,-0.05371094,-0.5605469
-0.6875,5.375,0.625,-0.02978516,0.0078125,0.9985352,0.3261719,-0.04443359,-0.5703125
-0.125,3.9375,-0.4375,-0.01855469,0.008789063,1.001953,0.3261719,-0.04443359,-0.5703125
-0.625,2,-3,0,-0.0009765625,1.00293,0.3261719,-0.04443359,-0.5703125
0.5625,0.9375,-3.3125,0.001953125,-0.01269531,1.012695,0.3212891,-0.05371094,-0.5732422
0.75,0.625,-3.9375,0.0009765625,-0.02294922,1.010742,0.3212891,-0.05371094,-0.5732422
1.1875,0.375,-3.9375,0.001953125,-0.01074219,1.028809,0.3212891,-0.05371094,-0.5732422
0.6875,-0.125,-4.125,0.00390625,-0.006835938,1.022949,0.3212891,-0.05371094,-0.5732422
0,-0.5,-4.1875,0.00390625,-0.01171875,1.023926,0.3212891,-0.05371094,-0.5732422
-1,-1.9375,-3,0.01757813,-0.02783203,1.010742,0.3212891,-0.05371094,-0.5732422
-1.3125,-2.8125,-2.0625,0.015625,-0.03466797,1.012695,0.3212891,-0.05371094,-0.5732422
-2,-3,0,0.01660156,-0.03369141,1.027832,0.3227539,-0.04882813,-0.5703125
-1.875,-1.8125,1.4375,0.02490234,-0.03369141,1.041992,0.3227539,-0.04882813,-0.5703125
-2.3125,-1.0625,1.75,0.03076172,-0.02392578,1.036621,0.3227539,-0.04882813,-0.5703125
-2.75,0.3125,3.1875,0.02587891,-0.01855469,1.034668,0.3261719,-0.04443359,-0.574707
-2.8125,0.8125,5.125,0.02685547,-0.03564453,1.041992,0.3261719,-0.04443359,-0.574707
-1.3125,1.1875,6.8125,0.01953125,-0.05078125,1.046875,0.3261719,-0.04443359,-0.574707
-1.1875,2.6875,8.5,0.01660156,-0.03955078,1.040527,0.3261719,-0.04443359,-0.574707
-1.125,3.3125,9.125,0.004882813,-0.02978516,1.043945,0.3261719,-0.04443359,-0.574707
-0.625,3.625,9.125,0.001953125,-0.004882813,1.035645,0.3261719,-0.04443359,-0.574707
0.625,4.4375,9.0625,-0.0078125,-0.004882813,1.019531,0.3261719,-0.04443359,-0.574707
0.9375,4.4375,10.1875,-0.01660156,-0.004882813,1.031738,0.3261719,-0.05810547,-0.5717773
1.0625,5.125,12.0625,-0.01953125,-0.01464844,1.020996,0.3261719,-0.05810547,-0.5717773
1.9375,5.5,14.625,-0.03759766,-0.01757813,1.030762,0.3261719,-0.05810547,-0.5717773
1.5625,5.875,18.0625,-0.03857422,-0.01953125,1.014648,0.3237305,-0.05371094,-0.5776367
0.8125,6.625,21.625,-0.04785156,-0.01660156,1.027832,0.3237305,-0.05371094,-0.5776367
0.125,5.9375,25.1875,-0.04882813,-0.01464844,1.024902,0.3237305,-0.05371094,-0.5776367
-0.5625,6.875,28.6875,-0.046875,-0.01757813,1.006836,0.3227539,-0.05273438,-0.5678711
-2.0625,6.1875,30.625,-0.0546875,-0.008789063,1.008789,0.3227539,-0.05273438,-0.5678711
-3.9375,5.5625,32.625,-0.05371094,-0.02392578,0.9985352,0.3227539,-0.05273438,-0.5678711
-5.625,4.125,34.4375,-0.05664063,-0.02978516,0.996582,0.3227539,-0.05273438,-0.5678711
-7.1875,3.125,37.625,-0.05761719,-0.03271484,0.9897461,0.3188477,-0.05273438,-0.5678711
-8.75,1.125,39.75,-0.0546875,-0.03466797,0.987793,0.3188477,-0.05273438,-0.5678711
-8.75,-0.75,42.375,-0.06152344,-0.02392578,0.980957,0.3188477,-0.05273438,-0.5678711
-8.875,-2.8125,43.6875,-0.07080078,-0.02294922,0.9887695,0.3212891,-0.05029297,-0.5678711
-9.125,-5.375,45.1875,-0.06591797,0.00390625,0.9726563,0.3212891,-0.05029297,-0.5678711
-8.4375,-8.6875,44.875,-0.07666016,0.02783203,0.9726563,0.3212891,-0.05029297,-0.5678711
-7.25,-12,44.9375,-0.07763672,0.015625,0.9697266,0.3261719,-0.05371094,-0.5649414
-7.5,-14.75,45.625,-0.08251953,0.005859375,0.9765625,0.3261719,-0.05371094,-0.5649414
-7.5,-17,47.5,-0.07666016,-0.009765625,0.9916992,0.3261719,-0.05371094,-0.5649414
-6.125,-19.3125,49.1875,-0.08056641,-0.0009765625,0.9765625,0.3261719,-0.05371094,-0.5649414
-5.3125,-22.0625,50.5625,-0.06494141,0.03857422,0.9726563,0.3227539,-0.04882813,-0.574707
-4.375,-24.625,50.3125,-0.05664063,0.08789063,0.9628906,0.3227539,-0.04882813,-0.574707
-2.6875,-27.875,47.75,-0.07373047,0.08691406,0.9775391,0.3227539,-0.04882813,-0.574707
-0.5625,-29.4375,45.4375,-0.06298828,0.1005859,0.9667969,0.3261719,-0.04443359,-0.5664063
2.1875,-31.1875,43.3125,-0.04589844,0.08251953,0.9819336,0.3261719,-0.04443359,-0.5664063
4.875,-31.6875,42.3125,-0.01855469,0.06689453,0.9765625,0.3261719,-0.04443359,-0.5664063
6.9375,-30.5625,44.125,0.002929688,0.02587891,0.9887695,0.3144531,-0.04199219,-0.574707
8.375,-28.375,47.375,0.02099609,0.008789063,1.004883,0.3144531,-0.04199219,-0.574707
8.875,-26,52.375,0.03759766,-0.009765625,1.020996,0.3144531,-0.04199219,-0.574707
7.8125,-22.5625,57.6875,0.06298828,-0.03759766,1.024902,0.3144531,-0.04199219,-0.574707
6.6875,-18.8125,62.875,0.07861328,-0.04785156,1.023926,0.3144531,-0.04199219,-0.574707
4.8125,-16.625,66.1875,0.09472656,-0.05371094,1.035645,0.3144531,-0.04199219,-0.574707
3.4375,-14.4375,68.0625,0.09960938,-0.09667969,1.046875,0.3144531,-0.04199219,-0.574707
1.9375,-12.5,69.6875,0.1069336,-0.1079102,1.040527,0.3027344,-0.0546875,-0.574707
0.9375,-11,70.0625,0.09472656,-0.1079102,1.067871,0.3027344,-0.0546875,-0.574707
-0.0625,-9.0625,68.6875,0.07958984,-0.1196289,1.083984,0.3027344,-0.0546875,-0.574707
1.0625,-8.4375,67.5,0.06787109,-0.09960938,1.09082,0.3076172,-0.04785156,-0.5693359
1.875,-8,68.375,0.02978516,-0.1137695,1.069824,0.3076172,-0.04785156,-0.5693359
5.25,-6.375,71.75,-0.02294922,-0.1137695,1.053711,0.3076172,-0.04785156,-0.5693359
9.1875,-6.25,77.5625,-0.04199219,-0.1049805,1.057617,0.296875,-0.05712891,-0.5678711
14.0625,-6.3125,86.5625,-0.09179688,-0.09277344,1.039551,0.296875,-0.05712891,-0.5678711
17.875,-6.3125,98.0625,-0.1015625,-0.09570313,1.004883,0.296875,-0.05712891,-0.5678711
20,-6.5625,111,-0.1108398,-0.08984375,0.9946289,0.296875,-0.05712891,-0.5678711
18.6875,-6.8125,126.125,-0.1206055,-0.07373047,0.9946289,0.2993164,-0.05810547,-0.5717773
16.1875,-8.4375,143.0625,-0.1269531,-0.07373047,0.9755859,0.2993164,-0.05810547,-0.5717773
13.375,-10.6875,160.375,-0.1347656,-0.0859375,0.9707031,0.2993164,-0.05810547,-0.5717773
10.5625,-14.875,180,-0.1079102,-0.1328125,0.9267578,0.3051758,-0.05712891,-0.5761719
8.125,-20.4375,197.75,-0.07861328,-0.1479492,0.9038086,0.3051758,-0.05712891,-0.5761719
4.5,-27.25,212.1875,-0.01660156,-0.152832,0.8979492,0.3051758,-0.05712891,-0.5761719
1,-33.375,221.9375,0.04980469,-0.1176758,0.9238281,0.2866211,-0.04882813,-0.5664063
-3.5,-37.1875,225.8125,0.08691406,-0.07958984,0.9677734,0.2866211,-0.04882813,-0.5664063
-8.1875,-40,226.375,0.1625977,-0.05957031,0.9785156,0.2866211,-0.04882813,-0.5664063
-12.9375,-38.875,222,0.2148438,-0.01660156,1.005859,0.2866211,-0.04882813,-0.5664063
-16.875,-36.8125,215.8125,0.2416992,0.002929688,1.052734,0.2851563,-0.05273438,-0.5678711
-21.9375,-31.8125,207.8125,0.2797852,0.01464844,1.025879,0.2851563,-0.05273438,-0.5678711
-24.125,-25.4375,201.0625,0.3168945,0.002929688,1.051758,0.2851563,-0.05273438,-0.5678711
-26.4375,-17.5,195.375,0.3256836,-0.0078125,1.008789,0.2866211,-0.04199219,-0.5703125
-27.8125,-11.75,191,0.3378906,0.0009765625,1.028809,0.2866211,-0.04199219,-0.5703125
-30.1875,-4.875,186.5625,0.3237305,-0.009765625,1.035645,0.2866211,-0.04199219,-0.5703125
-33,2.625,184.3125,0.3105469,-0.03662109,1.035645,0.2817383,-0.04199219,-0.5605469
-34.0625,8.5,185.125,0.2988281,-0.09863281,1.075684,0.2817383,-0.04199219,-0.5605469
-35.3125,13.9375,187.8125,0.2719727,-0.1357422,1.091797,0.2817383,-0.04199219,-0.5605469
-36.75,20,190.5625,0.2519531,-0.159668,1.100586,0.2817383,-0.04199219,-0.5605469
-37.9375,24.6875,196.375,0.1879883,-0.2509766,1.12793,0.2817383,-0.04199219,-0.5605469
-38.125,28.625,203.75,0.09667969,-0.2788086,1.148926,0.2817383,-0.04199219,-0.5605469
-36.9375,27.9375,209.3125,0.03466797,-0.2597656,1.133789,0.2817383,-0.04199219,-0.5605469
-33.875,25.0625,213.1875,-0.03173828,-0.2138672,1.080566,0.2792969,-0.02929688,-0.5664063
-27.9375,21.125,213.5625,-0.04589844,-0.1567383,1.037598,0.2792969,-0.02929688,-0.5664063
-22.875,16.125,212.125,-0.0546875,-0.1416016,1.003906,0.2792969,-0.02929688,-0.5664063
-18.0625,12.0625,208.1875,-0.05175781,-0.09570313,1.006836,0.2885742,-0.02929688,-0.5605469
-13.75,8.25,205.5,-0.04980469,-0.09277344,0.9726563,0.2885742,-0.02929688,-0.5605469
-8.3125,4.625,205.5,-0.015625,-0.09863281,0.9428711,0.2885742,-0.02929688,-0.5605469
-2.4375,1.5,206.125,0.0009765625,-0.08154297,0.9179688,0.2885742,-0.02929688,-0.5605469
1.875,-0.8125,208.25,0.02490234,-0.05371094,0.9145508,0.2885742,-0.02929688,-0.5605469
7.375,-1.375,211.9375,0.04052734,-0.05078125,0.9248047,0.2885742,-0.02929688,-0.5605469
10.8125,-0.75,216.5625,0.09082031,-0.05664063,0.9125977,0.2885742,-0.02929688,-0.5605469
12.9375,1.5625,223.875,0.1259766,-0.07470703,0.9506836,0.2773438,-0.02587891,-0.5605469
14.625,4.5,231.125,0.1826172,-0.09472656,0.9819336,0.2773438,-0.02587891,-0.5605469
12.4375,14.625,239.5625,0.2387695,-0.1669922,1.034668,0.2773438,-0.02587891,-0.5605469
11.4375,20.625,248.5625,0.2646484,-0.2075195,1.019531,0.2758789,-0.02929688,-0.5693359
10.1875,29.375,255.1875,0.2919922,-0.2265625,1.067871,0.2758789,-0.02929688,-0.5693359
9.6875,36.125,258.4375,0.3168945,-0.2197266,1.07959,0.2758789,-0.02929688,-0.5693359
9.375,45.4375,258.8125,0.3217773,-0.2045898,1.102539,0.2885742,-0.02099609,-0.5620117
10.1875,53,259.625,0.3369141,-0.2089844,1.068848,0.2885742,-0.02099609,-0.5620117
10.75,60.3125,259.125,0.3066406,-0.1738281,1.112793,0.2885742,-0.02099609,-0.5620117
12.5,66.6875,257.5,0.2939453,-0.1655273,1.111816,0.2885742,-0.02099609,-0.5620117
18,73.75,255.625,0.2426758,-0.1376953,1.108887,0.2841797,-0.02246094,-0.5664063
22.1875,80.8125,254.125,0.1787109,-0.1235352,1.099609,0.2841797,-0.02246094,-0.5664063
27.3125,84.25,254.3125,0.1328125,-0.1318359,1.05957,0.2841797,-0.02246094,-0.5664063
32.1875,85.75,254.8125,0.046875,-0.1118164,1.053711,0.2924805,-0.01904297,-0.5678711
36.5625,83.625,254.1875,-0.03369141,-0.06298828,1.07959,0.2924805,-0.01904297,-0.5678711
39.5625,83.0625,250.875,-0.07470703,-0.02099609,1.057617,0.2924805,-0.01904297,-0.5678711
42.8125,78.6875,240.9375,-0.1298828,0.1005859,1.015625,0.2983398,-0.02001953,-0.5703125
44,73.9375,227.375,-0.1538086,0.2016602,0.956543,0.2983398,-0.02001953,-0.5703125
41.6875,66.625,211,-0.1728516,0.2236328,0.9335938,0.2983398,-0.02001953,-0.5703125
38.125,59.8125,196.6875,-0.1748047,0.265625,0.9057617,0.2983398,-0.02001953,-0.5703125
33.5,52.3125,184.3125,-0.1826172,0.2587891,0.8916016,0.3027344,-0.03515625,-0.5732422
25.9375,47.125,176.25,-0.1958008,0.2426758,0.8925781,0.3027344,-0.03515625,-0.5732422
13.1875,36.9375,170.875,-0.2319336,0.2246094,0.7446289,0.3027344,-0.03515625,-0.5732422
0.8125,16.8125,171.25,-0.1958008,0.1928711,0.9355469,0.3051758,-0.02685547,-0.5678711
-3.9375,19.3125,169.75,-0.1757813,0.246582,0.8139648,0.3051758,-0.02685547,-0.5678711
-18.0625,3.5625,162.8125,-0.199707,0.3359375,0.6625977,0.3051758,-0.02685547,-0.5678711
-25.6875,-10.25,159.75,-0.112793,0.2109375,0.855957,0.3178711,-0.03027344,-0.5649414
-33.0625,-13.5,154.375,-0.1235352,0.2119141,0.8027344,0.3178711,-0.03027344,-0.5649414
-41.6875,-18.5,148.9375,-0.08789063,0.1489258,0.8305664,0.3178711,-0.03027344,-0.5649414
-46.875,-25.6875,143.875,-0.08691406,0.1235352,0.8339844,0.3178711,-0.03027344,-0.5649414
-50.5,-32.6875,140.6875,-0.06152344,0.05859375,0.8129883,0.3178711,-0.03027344,-0.5649414
-54.5625,-36.4375,141.6875,-0.02392578,-0.03759766,0.8798828,0.3178711,-0.03027344,-0.5649414
-56.1875,-39.25,147.0625,-0.01855469,-0.07666016,0.8886719,0.3178711,-0.03027344,-0.5649414
-57.875,-41.625,154.375,-0.01660156,-0.1567383,0.9365234,0.2983398,-0.02490234,-0.5620117
-60.375,-42.4375,165.375,0.002929688,-0.230957,0.9907227,0.2983398,-0.02490234,-0.5620117
-60.6875,-42.6875,179.1875,-0.00390625,-0.2856445,0.9575195,0.2983398,-0.02490234,-0.5620117
-60.8125,-42.6875,195.375,0.02197266,-0.3256836,1.049805,0.2983398,-0.01757813,-0.5664063
-59.75,-34.8125,208.75,0.01953125,-0.3388672,1.087891,0.2983398,-0.01757813,-0.5664063
-56.9375,-29.5,218.9375,0.015625,-0.3398438,1.10791,0.2983398,-0.01757813,-0.5664063
-54.6875,-24.375,224.9375,-0.002929688,-0.3208008,1.087891,0.2944336,-0.005859375,-0.5634766
-51.875,-20.875,226.8125,-0.01757813,-0.265625,1.109863,0.2944336,-0.005859375,-0.5634766
-48.5625,-17.0625,225.4375,-0.01367188,-0.2416992,1.084961,0.2944336,-0.005859375,-0.5634766
-45.8125,-13.75,224,-0.015625,-0.2099609,1.100586,0.2944336,-0.005859375,-0.5634766
-44.8125,-12.625,221.875,-0.02587891,-0.1347656,0.9726563,0.293457,-0.005859375,-0.5581055
-49.125,-17.625,221,-0.01660156,-0.1767578,0.9145508,0.293457,-0.005859375,-0.5581055
-44.1875,-10.8125,220.5,-0.04882813,-0.05761719,1.07666,0.293457,-0.005859375,-0.5581055
-44.875,-7.8125,212.8125,-0.09472656,0.04296875,1.07666,0.2875977,0.001464844,-0.5717773
-46.0625,-5.4375,205.0625,-0.06982422,0.08789063,1.035645,0.2875977,0.001464844,-0.5717773
-46.875,-7.1875,194.875,-0.04980469,0.1586914,0.980957,0.2875977,0.001464844,-0.5717773
-47.8125,-7.1875,185.75,-0.04394531,0.2177734,0.9555664,0.2910156,0.002929688,-0.5732422
-50.5,-10.375,174.8125,-0.0009765625,0.2475586,0.9077148,0.2910156,0.002929688,-0.5732422
-52.8125,-14.5625,164.5,-0.006835938,0.2875977,0.8945313,0.2910156,0.002929688,-0.5732422
-55.6875,-17.8125,156.0625,-0.01660156,0.284668,0.8867188,0.2910156,0.002929688,-0.5732422
-56.6875,-19.5625,153.4375,0,0.2368164,0.9008789,0.2900391,0.01074219,-0.5732422
-58.8125,-20.5625,156.6875,-0.01464844,0.1655273,0.8847656,0.2900391,0.01074219,-0.5732422
-60.3125,-23.9375,165,-0.03076172,0.1118164,0.8588867,0.2900391,0.01074219,-0.5732422
-60.25,-25.4375,176.4375,-0.04589844,0.02490234,0.8696289,0.2910156,0.02148438,-0.5649414
-59.0625,-29.625,189.625,-0.05273438,-0.0546875,0.8959961,0.2910156,0.02148438,-0.5649414
-54.25,-32.9375,201.3125,-0.06054688,-0.1049805,0.8925781,0.2910156,0.02148438,-0.5649414
-48.875,-36.5625,207.4375,-0.1035156,-0.1777344,0.9916992,0.2885742,0.02929688,-0.5678711
-44.9375,-38.1875,210.25,-0.09375,-0.265625,1.068848,0.2885742,0.02929688,-0.5678711
-42.375,-39.1875,212.3125,-0.1196289,-0.2827148,1.120605,0.2885742,0.02929688,-0.5678711
-39.25,-37.1875,213.375,-0.1166992,-0.2856445,1.160645,0.2885742,0.02929688,-0.5678711
-38.0625,-39.4375,215.4375,-0.08789063,-0.2265625,1.086914,0.2885742,0.02929688,-0.5678711
-36.8125,-41.9375,215,-0.05566406,-0.1728516,1.07666,0.2885742,0.02929688,-0.5678711
-37.5,-42.6875,212.3125,0.006835938,-0.09863281,1.019531,0.2885742,0.02929688,-0.5678711
-39.1875,-44.8125,210.4375,0.01464844,-0.1079102,0.9467773,0.2817383,0.03515625,-0.5732422
-43.875,-46.3125,210.625,0.02978516,-0.1416016,0.8925781,0.2817383,0.03515625,-0.5732422
-50.125,-46.9375,215.5,0.004882813,-0.2119141,0.9326172,0.2817383,0.03515625,-0.5732422
-56.75,-46,225.0625,-0.01171875,-0.2158203,0.909668,0.2924805,0.04101563,-0.5566406
-98,-76.8125,226,-0.03955078,-0.1279297,1.077637,0.2924805,0.04101563,-0.5566406
-59.6875,-63,242.375,0.2905273,-0.3339844,1.09375,0.2924805,0.04101563,-0.5566406
-62.75,-70.6875,238.9375,0.05175781,-0.2329102,1.034668,0.2875977,0.046875,-0.5551758
-60.3125,-62.125,239.4375,0.001953125,-0.2255859,1.074707,0.2875977,0.046875,-0.5551758
-60.25,-57.9375,230.75,0.1416016,-0.1337891,0.9936523,0.2875977,0.046875,-0.5551758
-58.5625,-54.625,220.6875,0.1269531,-0.1088867,1.148926,0.2875977,0.046875,-0.5551758
-54.3125,-43.3125,211.4375,0.09375,-0.1938477,1.027832,0.2875977,0.06201172,-0.5634766
-57.125,-53.0625,202.375,-0.006835938,-0.3549805,0.9467773,0.2875977,0.06201172,-0.5634766
-47.1875,-51.625,195.75,-0.01953125,-0.362793,1.140625,0.2875977,0.06201172,-0.5634766
-40.75,-46.5,185.3125,-0.08496094,-0.3598633,1.147949,0.2900391,0.06445313,-0.5595703
-36.625,-37,171.375,-0.07275391,-0.3129883,1.196777,0.2900391,0.06445313,-0.5595703
-33.625,-29.375,161.3125,-0.07177734,-0.2905273,1.115723,0.2900391,0.06445313,-0.5595703
-29.0625,-23.25,153.9375,-0.06054688,-0.2739258,1.098633,0.2900391,0.06787109,-0.5566406
-16.6875,-8,147.5,0.01074219,-0.03662109,1.534668,0.2900391,0.06787109,-0.5566406
14.8125,37.4375,135.125,-0.1079102,0.1367188,1.830566,0.2900391,0.06787109,-0.5566406
27.5625,33.5625,152.875,-0.2255859,-0.4975586,0.6196289,0.2900391,0.06787109,-0.5566406
26.8125,5.875,178.5,-0.1425781,-0.4799805,0.9438477,0.2983398,0.06884766,-0.5581055
37,6.5625,193.75,-0.1088867,-0.3969727,1.001953,0.2983398,0.06884766,-0.5581055
41.6875,0.0625,202.5625,-0.1147461,-0.315918,0.9077148,0.2983398,0.06884766,-0.5581055
45.875,-5.1875,204.4375,-0.1176758,-0.2236328,0.9975586,0.293457,0.06054688,-0.5566406
47.4375,-9.625,200.375,-0.1147461,-0.2216797,1.056641,0.293457,0.06054688,-0.5566406
48,-12.375,192.25,-0.09570313,-0.199707,1.029785,0.293457,0.06054688,-0.5566406
45.6875,-11.375,182.3125,-0.08691406,-0.2119141,1.010742,0.2944336,0.06054688,-0.5620117
44.375,-9.625,172.125,-0.03759766,-0.2119141,1.004883,0.2944336,0.06054688,-0.5620117
38.875,-5.1875,161.625,-0.02197266,-0.2226563,1.013672,0.2944336,0.06054688,-0.5620117
33.125,-1.9375,151.875,0.04882813,-0.190918,1.012695,0.2944336,0.06054688,-0.5620117
32.3125,1.3125,152.5,0.04785156,-0.1445313,0.9458008,0.2944336,0.06054688,-0.5620117
33.375,-1.5625,153.625,0.02880859,-0.1108398,0.9116211,0.2944336,0.06054688,-0.5620117
33.125,-7.0625,156.3125,0.01757813,-0.125,0.9365234,0.2944336,0.06054688,-0.5620117
35.5625,-11.1875,157.9375,0.005859375,-0.1225586,0.9677734,0.2944336,0.05615234,-0.5634766
38.3125,-12.5,157.4375,-0.03662109,-0.1459961,0.9667969,0.2944336,0.05615234,-0.5634766
38.6875,-16.4375,155.875,-0.04492188,-0.1508789,0.9765625,0.2944336,0.05615234,-0.5634766
38.75,-20.3125,151.8125,-0.08398438,-0.1748047,1.007813,0.296875,0.05126953,-0.5634766
39.0625,-19.5,148,-0.1108398,-0.2089844,1.05957,0.296875,0.05126953,-0.5634766
36.5,-19,142.25,-0.1289063,-0.2158203,1.063965,0.296875,0.05126953,-0.5634766
32.125,-18.5,137.125,-0.1577148,-0.1967773,1.058594,0.296875,0.05126953,-0.5634766
27.375,-18.3125,133.1875,-0.1948242,-0.1748047,1.084961,0.296875,0.05126953,-0.5634766
26.625,-18.6875,132.0625,-0.206543,-0.1557617,1.098633,0.296875,0.05126953,-0.5634766
28.5,-19,130.4375,-0.2329102,-0.1435547,1.152832,0.296875,0.05126953,-0.5634766
31.5625,-17.75,130,-0.21875,-0.1445313,1.143555,0.3017578,0.046875,-0.5776367
35.9375,-17.0625,130.875,-0.1958008,-0.1425781,1.116699,0.3017578,0.046875,-0.5776367
40.5,-18,135.0625,-0.1928711,-0.1757813,1.07666,0.3017578,0.046875,-0.5776367
45.0625,-20.625,142.375,-0.1679688,-0.1606445,1.077637,0.3037109,0.04101563,-0.574707
50.125,-23.625,149.25,-0.152832,-0.1347656,1.077637,0.3037109,0.04101563,-0.574707
54.6875,-26.5625,154,-0.1367188,-0.03466797,1.063965,0.3037109,0.04101563,-0.574707
57.875,-26.8125,148,-0.1289063,0.07373047,1.028809,0.3061523,0.03515625,-0.5693359
57.25,-26.9375,148.1875,-0.1269531,-0.01367188,1.045898,0.3061523,0.03515625,-0.5693359
52.25,-27.1875,146.125,-0.09863281,0.06884766,0.9707031,0.3061523,0.03515625,-0.5693359
46.9375,-26.3125,140.1875,-0.08691406,0.08789063,1.050781,0.3061523,0.03515625,-0.5693359
40.6875,-21.625,133.5625,-0.06787109,0.1025391,1.058594,0.3027344,0.03515625,-0.574707
34.1875,-16.9375,125,-0.05957031,0.08154297,1.031738,0.3027344,0.03515625,-0.574707
27.5,-16.5,120.3125,-0.07080078,-0.0078125,0.9248047,0.3027344,0.03515625,-0.574707
17.6875,-20.6875,119.6875,-0.07373047,-0.03564453,0.8857422,0.3051758,0.03271484,-0.5693359
12.0625,-24.4375,117.625,-0.02587891,-0.03173828,0.9555664,0.3051758,0.03271484,-0.5693359
8.375,-27.8125,114.75,-0.02490234,-0.02099609,1.007813,0.3051758,0.03271484,-0.5693359
7.9375,-29,110.625,-0.02587891,-0.015625,1.030762,0.3061523,0.02929688,-0.5732422
9.0625,-26.875,107,-0.02685547,-0.02392578,1.038574,0.3061523,0.02929688,-0.5732422
10.25,-26.3125,105.125,-0.01855469,-0.02685547,1.031738,0.3061523,0.02929688,-0.5732422
9.875,-25,105.8125,-0.01953125,-0.01367188,1.011719,0.3061523,0.02929688,-0.5732422
9.25,-23.5625,108.4375,-0.04394531,-0.006835938,1.029785,0.3061523,0.02929688,-0.5732422
10.1875,-23.5625,111.9375,-0.06396484,-0.01074219,1.042969,0.3061523,0.02929688,-0.5732422
11.1875,-22.9375,114.4375,-0.08398438,-0.02978516,1.068848,0.3061523,0.02929688,-0.5732422
13.0625,-23.4375,114.8125,-0.1118164,-0.04296875,1.067871,0.2924805,0.02734375,-0.5791016
13.6875,-21.25,113.6875,-0.1337891,-0.04785156,1.121582,0.2924805,0.02734375,-0.5791016
11.625,-19.9375,112.125,-0.1645508,-0.06054688,1.106934,0.2924805,0.02734375,-0.5791016
10,-17.625,110.3125,-0.1699219,-0.02099609,1.121582,0.2910156,0.03417969,-0.5791016
8.1875,-16.875,109.0625,-0.1845703,-0.02490234,1.102539,0.2910156,0.03417969,-0.5791016
9.125,-19.3125,110.875,-0.2246094,-0.02685547,1.125977,0.2910156,0.03417969,-0.5791016
12.25,-21.75,114.5625,-0.2329102,0.005859375,1.150879,0.2910156,0.03417969,-0.5791016
14.875,-23.875,117.8125,-0.2446289,0.04199219,1.156738,0.2910156,0.03417969,-0.5791016
15.875,-26.9375,121.0625,-0.2558594,0.1069336,1.064941,0.2910156,0.03417969,-0.5791016
13.8125,-32.1875,125.75,-0.2475586,0.1079102,0.9755859,0.2910156,0.03417969,-0.5791016
9.5,-41.4375,132.1875,-0.265625,0.08496094,0.9707031,0.2924805,0.02832031,-0.5859375
4.3125,-51.875,137.5625,-0.2338867,0.08789063,1.008789,0.2924805,0.02832031,-0.5859375
-0.5,-59.5,139.375,-0.2119141,0.08984375,0.9897461,0.2924805,0.02832031,-0.5859375
-7.125,-67.75,140.875,-0.1557617,0.07958984,0.9487305,0.2832031,0.02587891,-0.5844727
-15,-72.75,141.75,-0.1176758,0.02978516,0.9125977,0.2832031,0.02587891,-0.5844727
-25.625,-79.625,143.1875,-0.1005859,-0.02392578,0.9355469,0.2832031,0.02587891,-0.5844727
-34.5625,-88.5,142,-0.03173828,-0.0546875,0.9648438,0.2851563,0.02929688,-0.581543
-40,-91,139.375,0.02392578,-0.09472656,0.9726563,0.2851563,0.02929688,-0.581543
-42.3125,-95.9375,136.3125,0.05957031,-0.1196289,0.9716797,0.2851563,0.02929688,-0.581543
-42.3125,-96.375,134.5,0.1235352,-0.1425781,0.9555664,0.2851563,0.02929688,-0.581543
-41.4375,-97.375,133.375,0.1518555,-0.1635742,0.8549805,0.2749023,0.03662109,-0.5830078
-40.0625,-96.5625,133.1875,0.1767578,-0.1787109,0.8569336,0.2749023,0.03662109,-0.5830078
-37.6875,-94.5,133.875,0.2075195,-0.1879883,0.890625,0.2749023,0.03662109,-0.5830078
-34.125,-88.9375,133.3125,0.2548828,-0.2197266,0.8525391,0.2597656,0.04199219,-0.574707
-30.9375,-84.125,133.625,0.2685547,-0.2348633,0.8725586,0.2597656,0.04199219,-0.574707
-26.6875,-70.75,132.125,0.2397461,-0.2709961,1.001953,0.2597656,0.04199219,-0.574707
-18.25,-55.375,127,0.2109375,-0.277832,0.9697266,0.2583008,0.04443359,-0.574707
-11.9375,-41.5625,121.125,0.2109375,-0.2817383,1.022949,0.2583008,0.04443359,-0.574707
-5.9375,-27.75,115,0.1655273,-0.2685547,1.055664,0.2583008,0.04443359,-0.574707
-1.875,-14,109.875,0.1518555,-0.2578125,0.9765625,0.2583008,0.04443359,-0.574707
0.3125,-6.25,105.8125,0.1367188,-0.2426758,0.9228516,0.2563477,0.05273438,-0.5791016
-0.125,2.25,103.5625,0.1518555,-0.2275391,0.9399414,0.2563477,0.05273438,-0.5791016
-0.25,9.75,101.625,0.1479492,-0.1728516,0.8979492,0.2563477,0.05273438,-0.5791016
-2.4375,11.5625,100,0.1157227,-0.1567383,0.8579102,0.269043,0.04589844,-0.5791016
-8.0625,9.125,100.5,0.008789063,-0.125,0.9975586,0.269043,0.04589844,-0.5791016
-7.4375,12.4375,99.5625,0.02783203,0.0009765625,0.9985352,0.269043,0.04589844,-0.5791016
-8.125,18,94,-0.002929688,0.01367188,1.030762,0.269043,0.05029297,-0.5898438
-9.9375,26.125,87.5,-0.01464844,0.04589844,1.07666,0.269043,0.05029297,-0.5898438
-10.6875,33.25,78.75,-0.01269531,0.09667969,1.047852,0.269043,0.05029297,-0.5898438
-9,37.5,69.625,0.01464844,0.1176758,1.032715,0.269043,0.05029297,-0.5898438
-5.5625,40.0625,59.875,0.03564453,0.1079102,1.050781,0.269043,0.05029297,-0.5898438
-3.125,44.3125,50.5625,0.04882813,0.09667969,1.051758,0.269043,0.05029297,-0.5898438
-0.875,48.3125,42.3125,0.05175781,0.06494141,1.041992,0.269043,0.05029297,-0.5898438
1.1875,51.75,34.8125,0.04882813,0.04492188,1.019531,0.2724609,0.04931641,-0.5703125
2.1875,55.4375,26.8125,0.04492188,0.04492188,1.004883,0.2724609,0.04931641,-0.5703125
2.4375,58.25,19,0.04199219,0.02392578,0.996582,0.2724609,0.04931641,-0.5703125
3.3125,60.125,11.1875,0.01269531,0.001953125,0.96875,0.2783203,0.05517578,-0.5776367
2.5,59.9375,4.5,0.001953125,-0.0078125,0.9667969,0.2783203,0.05517578,-0.5776367
1.0625,59.0625,0.8125,-0.04296875,-0.04785156,0.9755859,0.2783203,0.05517578,-0.5776367
-0.6875,56.8125,-1.875,-0.06396484,-0.06054688,0.9526367,0.2866211,0.04785156,-0.5776367
-3.125,53.1875,-2.125,-0.07373047,-0.08398438,0.9179688,0.2866211,0.04785156,-0.5776367
-5.0625,45.75,1.0625,-0.1147461,-0.121582,0.9008789,0.2866211,0.04785156,-0.5776367
-8.8125,36,7.375,-0.1347656,-0.1586914,0.9116211,0.2866211,0.04785156,-0.5776367
-10.25,27.0625,13.5625,-0.1386719,-0.1557617,0.9545898,0.2866211,0.05273438,-0.5776367
-9.125,21.1875,19.1875,-0.1767578,-0.152832,1.031738,0.2866211,0.05273438,-0.5776367
-7.625,17.125,23.125,-0.1879883,-0.1206055,1.05957,0.2866211,0.05273438,-0.5776367
-5.75,13.6875,27.8125,-0.2197266,-0.1196289,1.05957,0.2924805,0.05029297,-0.5776367
-4,9.3125,33.625,-0.2319336,-0.1625977,1.078613,0.2924805,0.05029297,-0.5776367
0.3125,6,41.1875,-0.237793,-0.2148438,1.149902,0.2924805,0.05029297,-0.5776367
6.25,3.9375,49.125,-0.2626953,-0.2216797,1.170898,0.2924805,0.05029297,-0.5800781
15.5,-0.375,55.625,-0.2646484,-0.1889648,1.168945,0.2924805,0.05029297,-0.5800781
24.625,-5.625,63.5,-0.2719727,-0.1679688,1.166992,0.2924805,0.05029297,-0.5800781
33.5625,-11.875,71.9375,-0.2617188,-0.1518555,1.152832,0.2924805,0.05029297,-0.5800781
42.625,-16.4375,79.875,-0.230957,-0.1176758,1.132813,0.293457,0.04931641,-0.5913086
51.0625,-20.5625,88.1875,-0.2128906,-0.07763672,1.108887,0.293457,0.04931641,-0.5913086
56.9375,-26,94.625,-0.1806641,-0.06591797,1.088867,0.293457,0.04931641,-0.5913086
61.375,-28.25,99.75,-0.1196289,-0.04394531,1.05957,0.2958984,0.046875,-0.5800781
63.8125,-32.625,101.125,-0.08398438,-0.02880859,1.023926,0.2958984,0.046875,-0.5800781
65.75,-35.375,100.875,0.01855469,0.01074219,1,0.2958984,0.046875,-0.5800781
65.6875,-34.6875,95.5625,0.06396484,0.04785156,0.987793,0.2900391,0.04589844,-0.5859375
63,-30.5625,90.875,0.1079102,0.07177734,0.9648438,0.2900391,0.04589844,-0.5859375
58.4375,-27.625,84.25,0.152832,0.09863281,0.9047852,0.2900391,0.04589844,-0.5859375
51.9375,-27.25,77.125,0.1748047,0.1259766,0.8769531,0.2900391,0.04589844,-0.5859375
46.1875,-26.1875,70.75,0.190918,0.1176758,0.8696289,0.2900391,0.04589844,-0.5859375
39,-20.1875,64.125,0.2045898,0.140625,0.8598633,0.2900391,0.04589844,-0.5859375
31.5625,-14.1875,58.375,0.2006836,0.1557617,0.8359375,0.2900391,0.04589844,-0.5859375
23.6875,-10.1875,52,0.1918945,0.1679688,0.8579102,0.2924805,0.03173828,-0.5874023
19.0625,-9.1875,45.8125,0.171875,0.1835938,0.8979492,0.2924805,0.03173828,-0.5874023
18.3125,-3.6875,40.6875,0.1118164,0.1005859,0.9467773,0.2924805,0.03173828,-0.5874023
20.3125,1.125,41.125,0.05957031,0.03369141,0.9609375,0.293457,0.03271484,-0.5986328
20.8125,1.875,45,-0.02587891,-0.05371094,0.9926758,0.293457,0.03271484,-0.5986328
21.5,0.5625,51.875,-0.05957031,-0.1035156,1.083984,0.293457,0.03271484,-0.5986328
24.4375,0.3125,59.375,-0.140625,-0.1289063,1.144531,0.2832031,0.02832031,-0.5913086
29.375,-0.0625,66.5,-0.2036133,-0.1166992,1.187988,0.2832031,0.02832031,-0.5913086
36.6875,-0.625,74,-0.2265625,-0.1269531,1.189941,0.2832031,0.02832031,-0.5913086
44.625,-4.3125,83.875,-0.2827148,-0.1518555,1.163574,0.2832031,0.02832031,-0.5913086
51.5625,-10.6875,95.1875,-0.3378906,-0.190918,1.206543,0.2832031,0.02490234,-0.6054688
59.625,-16.5625,104.25,-0.3359375,-0.2026367,1.23291,0.2832031,0.02490234,-0.6054688
65.5625,-20.625,111.875,-0.3295898,-0.1987305,1.21875,0.2832031,0.02490234,-0.6054688
69.75,-24.5,115.75,-0.2709961,-0.1777344,1.167969,0.2841797,0.01904297,-0.5913086
70.1875,-29.1875,116.9375,-0.2416992,-0.1616211,1.083984,0.2841797,0.01904297,-0.5913086
69.6875,-33.4375,116.875,-0.1679688,-0.1606445,1.054688,0.2841797,0.01904297,-0.5913086
66.4375,-38.6875,115.8125,-0.08984375,-0.1787109,1.005859,0.2807617,0.01660156,-0.5874023
63.0625,-43,112.8125,-0.06396484,-0.1757813,0.9746094,0.2807617,0.01660156,-0.5874023
56.9375,-45.25,109.375,0.02197266,-0.1376953,0.9238281,0.2807617,0.01660156,-0.5874023
50.1875,-46.8125,104.4375,0.08886719,-0.09179688,0.8808594,0.2807617,0.01660156,-0.5874023
43.125,-48.8125,98.125,0.1196289,-0.06396484,0.8876953,0.2817383,0.009765625,-0.5913086
39.875,-49,92.75,0.1679688,-0.04492188,0.8837891,0.2817383,0.009765625,-0.5913086
38,-44.9375,86.5,0.199707,-0.008789063,0.8779297,0.2817383,0.009765625,-0.5913086
35.5625,-43.3125,81.0625,0.2138672,0.01757813,0.8828125,0.2758789,-0.0004882813,-0.5800781
33.1875,-40.25,74,0.2246094,0.04199219,0.8647461,0.2758789,-0.0004882813,-0.5800781
28,-37.8125,67,0.2099609,0.03857422,0.8149414,0.2758789,-0.0004882813,-0.5800781
20.75,-36.5625,60.875,0.2006836,0.04882813,0.7949219,0.2758789,0.001464844,-0.5874023
16.4375,-34.875,55.125,0.1967773,0.03564453,0.8486328,0.2758789,0.001464844,-0.5874023
13.9375,-30.9375,51.4375,0.1777344,-0.02099609,0.9057617,0.2758789,0.001464844,-0.5874023
11.5,-28.125,48.8125,0.1318359,-0.03564453,0.9467773,0.2758789,0.001464844,-0.5874023
9.1875,-23.5,46.8125,0.08398438,-0.01953125,1.004883,0.2758789,0.001464844,-0.5874023
5.4375,-18.5,44.1875,0.05175781,0.005859375,0.9936523,0.2758789,0.001464844,-0.5874023
-0.0625,-15.0625,42.25,-0.002929688,0.0009765625,1.027832,0.2758789,0.001464844,-0.5874023
-3.75,-13,42.25,-0.08056641,-0.001953125,1.068848,0.2700195,-0.0004882813,-0.581543
-6.1875,-10.9375,41,-0.06494141,0.0009765625,1.111816,0.2700195,-0.0004882813,-0.581543
-3.0625,-9.125,40.1875,-0.07958984,0.02392578,1.142578,0.2700195,-0.0004882813,-0.581543
1.5625,-4.6875,37.625,-0.07763672,0.03369141,1.155762,0.262207,0.006347656,-0.5888672
4,-1.5,34.625,-0.1225586,-0.05175781,1.186523,0.262207,0.006347656,-0.5888672
6.6875,-0.375,38.1875,-0.1269531,0.01171875,1.136719,0.262207,0.006347656,-0.5888672
14,-2.3125,41.25,-0.1186523,0.07275391,1.178711,0.262207,0.006347656,-0.5888672
22.8125,-1.0625,43.375,-0.1147461,0.07275391,1.179688,0.262207,0.006347656,-0.5888672
30.125,-2.4375,45.75,-0.09277344,0.06298828,1.147949,0.262207,0.006347656,-0.5888672
37.1875,-3.8125,47.1875,-0.05957031,0.05273438,1.09082,0.262207,0.006347656,-0.5888672
40.9375,-7.4375,51.125,-0.04492188,0.0078125,1.015625,0.2641602,-0.004882813,-0.5874023
39.0625,-14.375,55.875,0.0078125,-0.06591797,0.9589844,0.2641602,-0.004882813,-0.5874023
39.25,-16.625,58.5,0.09667969,-0.05761719,1.015625,0.2641602,-0.004882813,-0.5874023
40,-18.3125,57.75,0.1025391,-0.0546875,1.013672,0.2563477,-0.004882813,-0.5957031
40.625,-15.5625,55.875,0.1166992,-0.05859375,1.012695,0.2563477,-0.004882813,-0.5957031
39.75,-12.5625,54.3125,0.1137695,-0.02685547,0.9306641,0.2563477,-0.004882813,-0.5957031
34.875,-15,52.5,0.1235352,-0.005859375,0.909668,0.2666016,-0.002441406,-0.5913086
30.8125,-15.375,48.3125,0.1308594,0.06787109,0.9428711,0.2666016,-0.002441406,-0.5913086
29.125,-13.6875,42.8125,0.1376953,0.1225586,0.9428711,0.2666016,-0.002441406,-0.5913086
27.1875,-12.875,35.5625,0.1367188,0.1259766,0.940918,0.2666016,-0.002441406,-0.5913086
24.6875,-12.3125,30.4375,0.1469727,0.1049805,0.940918,0.2597656,-0.001464844,-0.5942383
21.5,-9.625,23.625,0.1679688,0.1118164,0.9287109,0.2597656,-0.001464844,-0.5942383
17.75,-5.9375,13.375,0.1147461,0.07861328,1.003906,0.2597656,-0.001464844,-0.5942383
16.25,-0.4375,8.375,0.1098633,0.1645508,0.9526367,0.2529297,-0.01171875,-0.5957031
16.8125,0.25,4.9375,0.105957,0.1806641,1.038574,0.2529297,-0.01171875,-0.5957031
17.6875,3.8125,4.3125,0.05566406,0.1308594,1.031738,0.2529297,-0.01171875,-0.5957031
17.3125,5.0625,6.5,0.01953125,0.06054688,1.031738,0.2597656,-0.01513672,-0.5942383
18,5.8125,8.75,0.01464844,0.07763672,1.100586,0.2597656,-0.01513672,-0.5942383
20.5,8.125,7.4375,-0.002929688,0.09082031,1.101563,0.2597656,-0.01513672,-0.5942383
22.5,11.0625,5.375,-0.05078125,0.06396484,1.131836,0.2597656,-0.01513672,-0.5942383
23.625,12.375,6.1875,-0.07373047,0.03271484,1.123535,0.2597656,-0.01513672,-0.5942383
25,12.625,9.3125,-0.105957,0.01367188,1.116699,0.2597656,-0.01513672,-0.5942383
28.4375,11.8125,12.5625,-0.1108398,0.02880859,1.111816,0.2597656,-0.01513672,-0.5942383
30.375,12.875,15.375,-0.1186523,0.04882813,1.151855,0.2666016,-0.01904297,-0.5859375
34.6875,14.125,18.75,-0.1166992,0.05175781,1.155762,0.2666016,-0.01904297,-0.5859375
39.625,16.6875,21.25,-0.121582,0.03369141,1.139648,0.2666016,-0.01904297,-0.5859375
43.75,16.6875,23.1875,-0.09765625,0.03369141,1.130859,0.262207,-0.02490234,-0.5844727
48.375,17.125,23,-0.07275391,0.03173828,1.120605,0.262207,-0.02490234,-0.5844727
50.875,18.75,21,-0.04589844,0.009765625,1.072754,0.262207,-0.02490234,-0.5844727
49.125,18.9375,19,-0.03271484,-0.002929688,1.043945,0.262207,-0.02490234,-0.5844727
47.375,18.25,16.4375,0.02685547,-0.01367188,1.010742,0.262207,-0.02490234,-0.5844727
46.0625,20,11.8125,0.06884766,0.02783203,0.9897461,0.262207,-0.02490234,-0.5844727
44.4375,22.625,6.875,0.07666016,0.04492188,0.9726563,0.262207,-0.02490234,-0.5844727
43.1875,23.6875,0.125,0.09375,0.09570313,0.9526367,0.2607422,-0.03857422,-0.5791016
39.9375,25.875,-4.9375,0.09765625,0.1108398,0.9086914,0.2607422,-0.03857422,-0.5791016
36.3125,26.3125,-8.3125,0.08398438,0.1147461,0.8676758,0.2607422,-0.03857422,-0.5791016
34.1875,33.1875,-6.75,-0.02880859,-0.2236328,1.120605,0.2680664,-0.03759766,-0.581543
-18.5,8.25,-22.125,0.2539063,0.2958984,1.5,0.2680664,-0.03759766,-0.581543
22.0625,42.8125,-23.75,0.1118164,0.1806641,1.067871,0.2680664,-0.03759766,-0.581543
15.125,14.75,-17.375,-0.05664063,0,0.9897461,0.2749023,-0.03759766,-0.5844727
19.75,15.0625,-10.875,0.00390625,0.2568359,0.9365234,0.2749023,-0.03759766,-0.5844727
19.0625,16.25,-15.0625,0.07666016,0.3056641,0.9125977,0.2749023,-0.03759766,-0.5844727
20.1875,21.875,-22.6875,0.03173828,0.3115234,0.9047852,0.2749023,-0.03759766,-0.5844727
17.375,23.5625,-25,0.0009765625,0.2255859,0.9179688,0.2666016,-0.04882813,-0.5913086
14.9375,24.75,-23.375,-0.02490234,0.2285156,1.029785,0.2666016,-0.04882813,-0.5913086
15,28.9375,-23.625,-0.03759766,0.2666016,1.067871,0.2666016,-0.04882813,-0.5913086
16,33.0625,-26.4375,-0.04492188,0.2929688,1.061523,0.2758789,-0.04345703,-0.5874023
15.3125,34.1875,-28.875,-0.05078125,0.315918,1.042969,0.2758789,-0.04345703,-0.5874023
15.5625,35.0625,-31.5625,-0.05761719,0.3046875,1.056641,0.2758789,-0.04345703,-0.5874023
13,33.625,-33.5,-0.06152344,0.2998047,1.041992,0.2758789,-0.04345703,-0.5957031
11.25,31.4375,-35,-0.0546875,0.2875977,1.040527,0.2758789,-0.04345703,-0.5957031
7.75,29.5,-37.3125,-0.04980469,0.265625,1.072754,0.2758789,-0.04345703,-0.5957031
9,30.25,-39.6875,-0.05175781,0.2558594,1.099609,0.2758789,-0.04345703,-0.5957031
10.875,31.5625,-43.125,-0.03076172,0.2509766,1.116699,0.2783203,-0.05029297,-0.597168
13.125,33.9375,-47,-0.03662109,0.2446289,1.130859,0.2783203,-0.05029297,-0.597168
15.25,36.875,-51.125,-0.02392578,0.2426758,1.10498,0.2783203,-0.05029297,-0.597168
18.875,38.3125,-54.875,-0.03466797,0.2075195,1.125,0.2851563,-0.03857422,-0.5996094
20.0625,37.375,-60.375,-0.0546875,0.1796875,1.083984,0.2851563,-0.03857422,-0.5996094
19.9375,36.3125,-63.5,-0.05078125,0.1835938,1.05957,0.2851563,-0.03857422,-0.5996094
18.5,33.3125,-66.875,-0.05761719,0.1889648,0.9726563,0.2841797,-0.04101563,-0.5927734
16.3125,26.6875,-69.25,-0.06054688,0.1845703,0.987793,0.2841797,-0.04101563,-0.5927734
14.6875,19.125,-71.25,-0.06494141,0.1796875,0.9628906,0.2841797,-0.04101563,-0.5927734
13.0625,12.125,-73.375,-0.06396484,0.1616211,0.9775391,0.2841797,-0.04101563,-0.5927734
11.8125,7.125,-76.75,-0.08398438,0.1699219,0.9707031,0.2841797,-0.04101563,-0.5927734
9.0625,0.9375,-81.8125,-0.1005859,0.1557617,1.008789,0.2841797,-0.04101563,-0.5927734
6.4375,-4.1875,-88,-0.1079102,0.1279297,1.032715,0.2841797,-0.04101563,-0.5927734
4,-7.625,-96.0625,-0.1118164,0.1079102,1.046875,0.2851563,-0.05029297,-0.5913086
-0.5625,-12.9375,-101.5625,-0.1279297,0.08984375,1.026855,0.2851563,-0.05029297,-0.5913086
-6.375,-19.375,-108.5625,-0.1318359,0.06787109,1.032715,0.2851563,-0.05029297,-0.5913086
-13.5625,-25.6875,-118.8125,-0.1289063,0.07666016,1.051758,0.2958984,-0.05957031,-0.5874023
-20.6875,-31.25,-128.5625,-0.1049805,0.05761719,1.083984,0.2958984,-0.05957031,-0.5874023
-27.0625,-36.3125,-138.6875,-0.09472656,0.06054688,1.052734,0.2958984,-0.05957031,-0.5874023
-33.9375,-41.0625,-147.625,-0.09277344,0.05078125,1.060547,0.2958984,-0.05957031,-0.5874023
-39.9375,-43.4375,-156.1875,-0.09667969,0.05859375,1.063965,0.2958984,-0.05957031,-0.5874023
-45.0625,-44.5625,-162.1875,-0.1025391,0.08398438,1.054688,0.2958984,-0.05957031,-0.5874023
-49.375,-45,-169.8125,-0.1079102,0.1098633,1.034668,0.2958984,-0.05957031,-0.5874023
-53.125,-46.6875,-173.6875,-0.121582,0.1479492,0.9785156,0.2875977,-0.04541016,-0.5800781
-56.0625,-48.8125,-174.6875,-0.1386719,0.159668,0.9619141,0.2875977,-0.04541016,-0.5800781
-59.6875,-51,-173.25,-0.1479492,0.1645508,0.9638672,0.2875977,-0.04541016,-0.5800781
-62.875,-53.4375,-168.5625,-0.1767578,0.1699219,0.9648438,0.2910156,-0.03857422,-0.5844727
-65.125,-54.875,-165.6875,-0.199707,0.1748047,0.987793,0.2910156,-0.03857422,-0.5844727
-68.875,-56.75,-163.25,-0.2138672,0.1865234,1.008789,0.2910156,-0.03857422,-0.5844727
-72.375,-56.875,-163.6875,-0.2207031,0.2119141,1.020996,0.2875977,-0.03613281,-0.5791016
-79.125,-55.75,-166.5,-0.2226563,0.2348633,1.026855,0.2875977,-0.03613281,-0.5791016
-86.9375,-53.9375,-168.625,-0.199707,0.2299805,0.9887695,0.2875977,-0.03613281,-0.5791016
-93.125,-58,-169.5625,-0.1928711,0.1689453,1.000977,0.2875977,-0.03613281,-0.5791016
-95,-59.25,-169.625,-0.1806641,0.1289063,1.039551,0.2758789,-0.02929688,-0.5844727
-96.0625,-57.875,-171.25,-0.1547852,0.1367188,1.039551,0.2758789,-0.02929688,-0.5844727
-95.5,-56.5,-174.9375,-0.1088867,0.152832,1.060547,0.2758789,-0.02929688,-0.5844727
-91.5625,-51.5625,-179.4375,-0.09375,0.1499023,1.115723,0.2724609,-0.02099609,-0.5791016
-85,-46.1875,-183.3125,-0.04589844,0.125,1.121582,0.2724609,-0.02099609,-0.5791016
-74.4375,-38.25,-186.1875,-0.01171875,0.1069336,1.156738,0.2724609,-0.02099609,-0.5791016
-61.5625,-28.9375,-189,0.002929688,0.1328125,1.152832,0.2714844,-0.01757813,-0.5830078
-46.25,-18.125,-190.9375,0.00390625,0.152832,1.119629,0.2714844,-0.01757813,-0.5830078
-34.0625,-8.5625,-193.75,0.001953125,0.1958008,1.125,0.2714844,-0.01757813,-0.5830078
-23.1875,-1.5,-192.5,0,0.2265625,1.11084,0.2714844,-0.01757813,-0.5830078
-10.4375,12.125,-197.625,0.06152344,0.375,1.316895,0.2714844,-0.01757813,-0.5830078
20.25,40.625,-212.25,-0.1005859,0.4018555,0.9526367,0.2714844,-0.01757813,-0.5830078
10.4375,3.75,-188.375,-0.2875977,-0.1069336,0.277832,0.2714844,-0.01757813,-0.5830078
-2,-16.8125,-157.0625,-0.02099609,-0.2109375,0.7636719,0.2700195,-0.009765625,-0.581543
-10.3125,-13.0625,-141.3125,0.09375,-0.05175781,0.8198242,0.2700195,-0.009765625,-0.581543
-28.25,-12.6875,-132,0.09570313,0.04492188,0.7475586,0.2700195,-0.009765625,-0.581543
-42.0625,-19.25,-129,0.121582,0.1137695,0.8305664,0.2700195,-0.005859375,-0.5732422
-50.5,-19.625,-129.5,0.1518555,0.06591797,0.9326172,0.2700195,-0.005859375,-0.5732422
-46.25,-0.5,-130,0.1298828,-0.01855469,1.162598,0.2700195,-0.005859375,-0.5732422
-60.4375,-1.1875,-133.875,0.1147461,0.06152344,0.8276367,0.2700195,-0.005859375,-0.5732422
-59.75,4.4375,-133,0.09960938,0.08154297,0.9648438,0.2700195,-0.005859375,-0.5732422
-60.25,9,-132.4375,0.1347656,0.1005859,0.9477539,0.2700195,-0.005859375,-0.5732422
-63.1875,2.3125,-127.3125,0.1118164,0.04492188,0.7988281,0.2700195,-0.005859375,-0.5732422
-62.875,-4.625,-117.4375,0.1147461,0.00390625,0.8598633,0.2700195,0.002929688,-0.581543
-63.875,-10.375,-107.3125,0.1137695,-0.0009765625,0.875,0.2700195,0.002929688,-0.581543
-64.375,-14.25,-100.6875,0.1298828,0.02978516,0.9506836,0.2700195,0.002929688,-0.581543
-65.25,-14.75,-99.25,0.1337891,0.02392578,0.9267578,0.2597656,-0.0004882813,-0.5830078
-67.4375,-17.8125,-99.1875,0.1289063,0.01464844,0.9448242,0.2597656,-0.0004882813,-0.5830078
-67.5625,-16.875,-97.125,0.140625,-0.002929688,1.000977,0.2597656,-0.0004882813,-0.5830078
-66.875,-15,-99.3125,0.140625,-0.03466797,1.024902,0.2631836,0.006347656,-0.581543
-66.375,-12.75,-101.375,0.1367188,-0.03955078,1.022949,0.2631836,0.006347656,-0.581543
-68.25,-12.9375,-102.125,0.140625,-0.03564453,0.9985352,0.2631836,0.006347656,-0.581543
-70.3125,-12.75,-103.125,0.1376953,-0.01855469,1.007813,0.2631836,0.006347656,-0.581543
-71.9375,-13.0625,-108.125,0.1196289,-0.01660156,0.9985352,0.2680664,0.015625,-0.5874023
-75,-13.125,-112.625,0.08496094,0.0009765625,0.987793,0.2680664,0.015625,-0.5874023
-77.75,-14,-118.6875,0.07763672,0.02294922,1.033691,0.2680664,0.015625,-0.5874023
-81.875,-12.125,-125.3125,0.06689453,0.06396484,1.017578,0.2597656,0.01757813,-0.5678711
-87.125,-10,-133.0625,0.06152344,0.07666016,1.027832,0.2597656,0.01757813,-0.5678711
-92.3125,-8.6875,-139.4375,0.06689453,0.06591797,1.014648,0.2597656,0.01757813,-0.5678711
-97.9375,-5.5625,-144.25,0.06054688,0.04492188,1.023926,0.2666016,0.02832031,-0.5732422
-104.125,-5.0625,-147.4375,0.06152344,0.04589844,1.040527,0.2666016,0.02832031,-0.5732422
-109.3125,-1.8125,-152.4375,0.06884766,0.07275391,1.068848,0.2666016,0.02832031,-0.5732422
-114.875,2.9375,-159,0.08789063,0.1235352,1.022949,0.2666016,0.02832031,-0.5732422
-122.75,4.6875,-167.3125,0.1147461,0.1015625,0.956543,0.2607422,0.03857422,-0.5703125
-129.8125,6.25,-172.4375,0.112793,0.08056641,0.9487305,0.2607422,0.03857422,-0.5703125
-134.1875,10.25,-175.9375,0.1206055,-0.008789063,0.9897461,0.2607422,0.03857422,-0.5703125
-136.1875,12.4375,-177.3125,0.1166992,-0.05664063,0.9799805,0.262207,0.04101563,-0.5620117
-135.0625,14.875,-174.5,0.1098633,-0.09667969,1.016602,0.262207,0.04101563,-0.5620117
-132.0625,14.125,-169.75,0.1005859,-0.1787109,0.9975586,0.262207,0.04101563,-0.5620117
-126.125,16.8125,-162.0625,0.1015625,-0.21875,1.023926,0.2583008,0.05273438,-0.5595703
-120.6875,16.8125,-155.3125,0.07666016,-0.2128906,1.024902,0.2583008,0.05273438,-0.5595703
-116.375,16.4375,-148.6875,0.07080078,-0.2358398,1.022949,0.2583008,0.05273438,-0.5595703
-112.75,17.625,-143.4375,0.07763672,-0.2685547,0.9946289,0.2583008,0.05273438,-0.5595703
-108.0625,19.5,-140.3125,0.06591797,-0.2836914,1.000977,0.2583008,0.05273438,-0.5595703
-109.125,18.6875,-138.0625,0.08251953,-0.3237305,0.9418945,0.2583008,0.05273438,-0.5595703
-106.375,19.8125,-136.9375,0.08398438,-0.3388672,1.038574,0.2583008,0.05273438,-0.5595703
-103.75,23.6875,-137.625,0.07666016,-0.324707,1.008789,0.2607422,0.06298828,-0.5537109
-99.125,30.5625,-140.375,0.07568359,-0.3237305,1.069824,0.2607422,0.06298828,-0.5537109
-96.875,34.125,-143.1875,0.06884766,-0.3007813,0.987793,0.2607422,0.06298828,-0.5537109
-92.8125,36.5,-144.125,0.046875,-0.3598633,1.069824,0.2563477,0.07373047,-0.5551758
-92.8125,36.5,-146.1875,0.03857422,-0.3217773,0.9975586,0.2563477,0.07373047,-0.5551758
-91.8125,36.3125,-150.125,0.03564453,-0.284668,1.024902,0.2563477,0.07373047,-0.5551758
-93.6875,37.125,-155.9375,0.05175781,-0.2285156,1.017578,0.2529297,0.08984375,-0.5551758
-95.625,34.875,-162.5625,0.07861328,-0.1987305,0.9506836,0.2529297,0.08984375,-0.5551758
-99.125,32.9375,-169,0.08056641,-0.2109375,0.9487305,0.2529297,0.08984375,-0.5551758
-101.4375,31.625,-174.6875,0.08154297,-0.2456055,0.9589844,0.2529297,0.08984375,-0.5551758
-103.875,32.625,-178.5,0.09375,-0.2666016,0.9609375,0.2529297,0.08984375,-0.5605469
-104.6875,34.1875,-181.6875,0.105957,-0.2749023,0.9785156,0.2529297,0.08984375,-0.5605469
-103.6875,35,-182.4375,0.1347656,-0.2807617,0.9755859,0.2529297,0.08984375,-0.5605469
-100.5625,38.625,-181.5,0.1396484,-0.3017578,0.949707,0.2548828,0.09912109,-0.5581055
-96.5,41.8125,-178.375,0.1347656,-0.3217773,0.9799805,0.2548828,0.09912109,-0.5581055
-91.25,44.8125,-174.625,0.1386719,-0.2919922,0.9716797,0.2548828,0.09912109,-0.5581055
-83.9375,49.8125,-170.5625,0.1298828,-0.2929688,0.9487305,0.2563477,0.1000977,-0.5566406
-77.6875,51.875,-166.125,0.1088867,-0.3208008,0.9477539,0.2563477,0.1000977,-0.5566406
-70.75,56.4375,-160.75,0.09667969,-0.3359375,0.9208984,0.2563477,0.1000977,-0.5566406
-63.75,56.1875,-155.75,0.09667969,-0.2685547,0.8886719,0.2563477,0.1000977,-0.5566406
-53.625,54.4375,-151,0.08496094,-0.2456055,0.8916016,0.2573242,0.1074219,-0.5498047
-42.375,51.375,-143.75,0.05957031,-0.2626953,0.8808594,0.2573242,0.1074219,-0.5498047
-30.5625,47.8125,-133.125,0.05664063,-0.3359375,0.8989258,0.2573242,0.1074219,-0.5498047
-18.375,45.0625,-118.875,0.02685547,-0.3676758,0.9199219,0.2631836,0.1108398,-0.5537109
-7,43.1875,-104.1875,0.004882813,-0.4448242,0.9755859,0.2631836,0.1108398,-0.5537109
4.375,45.75,-93.6875,-0.01464844,-0.46875,1.011719,0.2631836,0.1108398,-0.5537109
12.5,49,-81.8125,-0.04052734,-0.4648438,1.018555,0.2607422,0.105957,-0.5522461
21.5,52,-73.75,-0.06689453,-0.4257813,1.026855,0.2607422,0.105957,-0.5522461
28.3125,54.875,-67.375,-0.07275391,-0.4145508,1.027832,0.2607422,0.105957,-0.5522461
36.125,56.625,-62.625,-0.1005859,-0.3989258,1.017578,0.2607422,0.105957,-0.5522461
41.8125,56.1875,-58.625,-0.1147461,-0.3808594,1.001953,0.2607422,0.105957,-0.5522461
46.1875,53.4375,-52.5625,-0.1298828,-0.3828125,0.9785156,0.2607422,0.105957,-0.5522461
47.8125,47.25,-45.875,-0.1279297,-0.3837891,0.9609375,0.2607422,0.105957,-0.5522461
47.8125,42,-40.5,-0.1025391,-0.315918,0.9189453,0.2714844,0.09912109,-0.5483398
46.1875,35.0625,-36.1875,-0.09277344,-0.2817383,0.9018555,0.2714844,0.09912109,-0.5483398
45.125,29.5625,-31.875,-0.06982422,-0.2568359,0.9125977,0.2714844,0.09912109,-0.5483398
42.4375,24.625,-28.8125,-0.05078125,-0.2446289,0.8989258,0.2749023,0.09228516,-0.5424805
38.6875,19.1875,-27.25,-0.04882813,-0.2255859,0.9199219,0.2749023,0.09228516,-0.5424805
35.0625,16,-27.5625,-0.03759766,-0.190918,0.9477539,0.2749023,0.09228516,-0.5424805
31.5625,13.5,-26.875,-0.02099609,-0.1645508,0.9399414,0.2680664,0.1000977,-0.5424805
28.3125,10.5625,-25.5625,-0.01464844,-0.1767578,0.9287109,0.2680664,0.1000977,-0.5424805
24.8125,6.625,-23.5625,0.01171875,-0.1806641,0.9125977,0.2680664,0.1000977,-0.5424805
20.75,3.875,-20.125,0.02099609,-0.1918945,0.9057617,0.2680664,0.1000977,-0.5424805
16.3125,0.1875,-15.875,0.02880859,-0.1967773,0.9116211,0.265625,0.09228516,-0.5439453
11.75,-2.625,-12.1875,0.04589844,-0.2275391,0.902832,0.265625,0.09228516,-0.5439453
8.75,-4.3125,-8.3125,0.06152344,-0.2685547,0.9306641,0.265625,0.09228516,-0.5439453
6.75,-6.5,-5.4375,0.07080078,-0.2739258,0.9555664,0.2714844,0.08886719,-0.546875
5.8125,-6.5,-5.625,0.08251953,-0.2529297,0.9755859,0.2714844,0.08886719,-0.546875
3.875,-5.8125,-7.375,0.09277344,-0.2485352,0.9936523,0.2714844,0.08886719,-0.546875
3.75,-4.375,-10.8125,0.1088867,-0.2646484,0.980957,0.269043,0.08740234,-0.5537109
5.25,-2.5625,-14.5,0.1098633,-0.277832,0.9628906,0.269043,0.08740234,-0.5537109
7.875,-2.625,-18.3125,0.1035156,-0.3007813,1,0.269043,0.08740234,-0.5537109
11.4375,0.125,-22.25,0.09960938,-0.3007813,1.026855,0.269043,0.08740234,-0.5537109
15.9375,1.875,-25.8125,0.08789063,-0.2958984,1.032715,0.269043,0.08496094,-0.5498047
19.8125,3.1875,-28.4375,0.09277344,-0.3076172,1.019531,0.269043,0.08496094,-0.5498047
21.875,1.75,-29.3125,0.09667969,-0.3427734,0.987793,0.269043,0.08496094,-0.5498047
22.3125,1.4375,-28.5625,0.09960938,-0.3486328,0.9746094,0.2758789,0.08300781,-0.5522461
21.6875,2.25,-27.0625,0.1176758,-0.3457031,0.9736328,0.2758789,0.08300781,-0.5522461
20.3125,3.6875,-27.5625,0.1147461,-0.315918,0.9755859,0.2758789,0.08300781,-0.5522461
20.625,5.6875,-27.375,0.1069336,-0.2836914,0.9765625,0.262207,0.08300781,-0.5522461
20.875,7.1875,-27.25,0.09277344,-0.2788086,0.9716797,0.262207,0.08300781,-0.5522461
23.0625,8.6875,-26.5,0.08398438,-0.2749023,1.004883,0.262207,0.08300781,-0.5522461
24.9375,10.5,-23.9375,0.06591797,-0.2836914,1.011719,0.262207,0.08300781,-0.5522461
26.6875,12.75,-21.5,0.05761719,-0.2768555,1.009766,0.262207,0.08300781,-0.5522461
28.4375,14.9375,-19,0.04882813,-0.2797852,1.001953,0.262207,0.08300781,-0.5522461
28.1875,16.1875,-15.125,0.05957031,-0.2875977,0.9936523,0.262207,0.08300781,-0.5522461
28.8125,16.75,-10.4375,0.05957031,-0.2949219,0.9775391,0.2700195,0.07470703,-0.5581055
28.25,17.375,-5.125,0.06494141,-0.3115234,0.9785156,0.2700195,0.07470703,-0.5581055
27.6875,17.6875,0,0.05957031,-0.3178711,1.000977,0.2700195,0.07470703,-0.5581055
28,19.3125,4.1875,0.04980469,-0.3188477,0.9936523,0.2607422,0.078125,-0.5551758
28.6875,19.875,8.3125,0.04589844,-0.3085938,0.9956055,0.2607422,0.078125,-0.5551758
30.75,20.5625,11.0625,0.04492188,-0.3007813,1.004883,0.2607422,0.078125,-0.5551758
33.5625,22,12.75,0.04882813,-0.2939453,1.028809,0.2607422,0.078125,-0.5551758
37.5,24.625,12.6875,0.03759766,-0.277832,1.035645,0.2607422,0.078125,-0.5551758
41.125,25,12,0.03759766,-0.2817383,1.051758,0.2607422,0.078125,-0.5551758
44.25,26.9375,10,0.02490234,-0.2788086,1.063965,0.2607422,0.078125,-0.5551758
47.4375,28.375,7.3125,0.008789063,-0.2788086,1.034668,0.2758789,0.0703125,-0.5498047
49.375,28.9375,4.875,-0.002929688,-0.2607422,1.016602,0.2758789,0.0703125,-0.5498047
51,27.1875,1.6875,-0.01953125,-0.2138672,1.024902,0.2758789,0.0703125,-0.5498047
52.25,26.0625,-1.3125,-0.02978516,-0.1855469,1.011719,0.2841797,0.06542969,-0.5566406
52.6875,23.6875,-3.1875,-0.03662109,-0.1845703,1.009766,0.2841797,0.06542969,-0.5566406
53.125,21.125,-5.875,-0.05078125,-0.1899414,1.007813,0.2841797,0.06542969,-0.5566406
52.3125,19.8125,-8.8125,-0.05859375,-0.1879883,1.008789,0.2773438,0.05029297,-0.5498047
51.5625,19.5,-12.375,-0.05664063,-0.1796875,1.024902,0.2773438,0.05029297,-0.5498047
51.125,18,-16.4375,-0.05566406,-0.171875,1.019531,0.2773438,0.05029297,-0.5498047
50.8125,16.0625,-19.875,-0.06054688,-0.1508789,1.010742,0.2773438,0.05029297,-0.5498047
51,16.3125,-22.4375,-0.05761719,-0.1435547,1.023926,0.2832031,0.05126953,-0.5522461
51.25,13.625,-24.375,-0.05664063,-0.1235352,1.006836,0.2832031,0.05126953,-0.5522461
51.0625,11.6875,-25.4375,-0.05566406,-0.1015625,0.987793,0.2832031,0.05126953,-0.5522461
50.5,10.6875,-27.1875,-0.04980469,-0.08886719,0.9829102,0.2773438,0.046875,-0.5498047
49.6875,9.25,-28.3125,-0.02978516,-0.07275391,0.9716797,0.2773438,0.046875,-0.5498047
49.375,6.4375,-28.5,-0.02978516,-0.07763672,0.9555664,0.2773438,0.046875,-0.5498047
49.4375,5.9375,-27.6875,-0.03076172,-0.09472656,0.9609375,0.2900391,0.03857422,-0.5537109
50,2.9375,-27.625,-0.03564453,-0.07958984,0.9628906,0.2900391,0.03857422,-0.5537109
50.8125,2.625,-27.4375,-0.03759766,-0.05957031,0.9975586,0.2900391,0.03857422,-0.5537109
52.4375,2.8125,-28.25,-0.01953125,-0.05957031,0.987793,0.2900391,0.03857422,-0.5537109
54.6875,1.6875,-29,-0.02294922,-0.07568359,0.9916992,0.2900391,0.03857422,-0.5537109
56.4375,2,-29.0625,-0.009765625,-0.1176758,1.003906,0.2900391,0.03857422,-0.5537109
57.6875,3.9375,-29.75,-0.002929688,-0.1269531,1,0.2900391,0.03857422,-0.5537109
59.1875,4.4375,-28.4375,0.01074219,-0.1518555,0.9946289,0.2851563,0.03271484,-0.5424805
59.4375,7.25,-28.1875,0.01464844,-0.1508789,1.005859,0.2851563,0.03271484,-0.5424805
60.75,9.0625,-28.3125,0.01464844,-0.1459961,1.003906,0.2851563,0.03271484,-0.5424805
62.125,10.75,-28.3125,0.02197266,-0.1435547,1.012695,0.2783203,0.03076172,-0.5507813
64.375,10.5,-27.625,0.01953125,-0.140625,1.006836,0.2783203,0.03076172,-0.5507813
66.875,11.8125,-26.8125,0.01855469,-0.1616211,1.020996,0.2783203,0.03076172,-0.5507813
69.625,13.25,-25.0625,0.03759766,-0.1606445,0.9799805,0.2783203,0.03076172,-0.5507813
70.5,14.0625,-22.1875,0.02490234,-0.159668,0.980957,0.2783203,0.03076172,-0.5507813
72.3125,13.8125,-18.875,0.06396484,-0.1445313,0.987793,0.2783203,0.03076172,-0.5507813
76.6875,10.75,-19.625,-0.05859375,-0.1108398,1.089844,0.2783203,0.03076172,-0.5507813
79.0625,21,-16.8125,-0.02294922,-0.1318359,1.063965,0.2807617,0.02001953,-0.5581055
80.6875,19.25,-15.125,-0.03662109,-0.1166992,1.006836,0.2807617,0.02001953,-0.5581055
86.125,21.0625,-13.5625,-0.07275391,-0.1357422,1.058594,0.2807617,0.02001953,-0.5581055
83.125,23.5,-13.25,-0.05371094,-0.1337891,1.05957,0.2807617,0.01318359,-0.5566406
86.5625,27.1875,-17.4375,-0.015625,-0.08789063,1.083984,0.2807617,0.01318359,-0.5566406
88.1875,32.1875,-23.4375,-0.01464844,-0.06054688,1.071777,0.2807617,0.01318359,-0.5566406
88,33.25,-28.75,-0.02392578,-0.06054688,1.052734,0.2817383,-0.0004882813,-0.5537109
88.875,30.875,-32.3125,-0.03857422,-0.03564453,1.036621,0.2817383,-0.0004882813,-0.5537109
89.4375,31.0625,-35.75,-0.03271484,-0.015625,1.020996,0.2817383,-0.0004882813,-0.5537109
94.4375,28.75,-39.875,-0.02587891,-0.001953125,1.019531,0.2817383,-0.0004882813,-0.5537109
95.875,27.5,-45.375,-0.006835938,0.02392578,1.001953,0.2924805,-0.00390625,-0.5664063
99.125,26,-50.625,-0.01074219,0.03564453,1.008789,0.2924805,-0.00390625,-0.5664063
103.0625,24,-54.5,-0.015625,0.04882813,0.9946289,0.2924805,-0.00390625,-0.5664063
106.0625,21.125,-59.25,-0.04492188,0.04199219,0.9946289,0.293457,-0.01757813,-0.5566406
110,18.5,-62.875,-0.04052734,0.04589844,0.9697266,0.293457,-0.01757813,-0.5566406
112.4375,13.8125,-66.6875,-0.01660156,0.04882813,0.9726563,0.293457,-0.01757813,-0.5566406
118.6875,9.4375,-69.4375,-0.02490234,0.03466797,0.9638672,0.2944336,-0.0234375,-0.5595703
122.625,5.25,-70.8125,-0.05078125,0.02685547,0.9799805,0.2944336,-0.0234375,-0.5595703
124.9375,1.5,-70.0625,-0.07275391,-0.01171875,1.024902,0.2944336,-0.0234375,-0.5595703
127.125,-1.3125,-66.1875,-0.05761719,-0.07275391,1.032715,0.2944336,-0.0234375,-0.5595703
131.0625,-4.5625,-58.1875,-0.04199219,-0.07666016,1.009766,0.2900391,-0.03417969,-0.546875
137.375,-10.25,-51.5625,-0.02197266,-0.06787109,0.9785156,0.2900391,-0.03417969,-0.546875
143.875,-13.875,-45,-0.03076172,-0.03759766,0.987793,0.2900391,-0.03417969,-0.546875
148.1875,-15.5625,-40.4375,-0.04882813,-0.01757813,1.042969,0.3037109,-0.05810547,-0.5507813
151.875,-15.6875,-38.75,-0.02197266,0.03662109,1.078613,0.3037109,-0.05810547,-0.5507813
156,-13.9375,-39.375,-0.008789063,0.05371094,1.063965,0.3037109,-0.05810547,-0.5507813
161.0625,-13,-39.9375,-0.02880859,0.04980469,1.055664,0.2924805,-0.06201172,-0.5551758
165.8125,-13.3125,-39,-0.01953125,0.03955078,1.020996,0.2924805,-0.06201172,-0.5551758
168.375,-13.8125,-36.3125,-0.04052734,0.03759766,1.051758,0.2924805,-0.06201172,-0.5551758
169.125,-14,-34.625,-0.05859375,0.04394531,1.060547,0.2924805,-0.06201172,-0.5551758
167.375,-10.875,-31.5,-0.07861328,0.03369141,1.075684,0.2924805,-0.06201172,-0.5551758
165.9375,-9.9375,-27.875,-0.08789063,0.0546875,1.087891,0.2924805,-0.06201172,-0.5551758
163.625,-8.4375,-24.375,-0.09472656,0.06494141,1.072754,0.2924805,-0.06201172,-0.5551758
160.625,-8.0625,-22.6875,-0.08251953,0.1025391,1.035645,0.293457,-0.09326172,-0.5400391
157.0625,-8.625,-21.0625,-0.07373047,0.1518555,1.011719,0.293457,-0.09326172,-0.5400391
152.0625,-10.5,-21.5,-0.07373047,0.1689453,1.000977,0.293457,-0.09326172,-0.5400391
147.0625,-10.3125,-22.75,-0.08691406,0.190918,1.006836,0.293457,-0.109375,-0.5551758
141.0625,-11.4375,-25.0625,-0.05566406,0.2998047,1.023926,0.293457,-0.109375,-0.5551758
137.1875,-12.125,-29.75,-0.05371094,0.2978516,0.9726563,0.293457,-0.109375,-0.5551758
136.4375,-17.625,-32.8125,-0.03564453,0.2836914,0.96875,0.2958984,-0.1176758,-0.5385742
136,-21.5,-34.3125,-0.03271484,0.2597656,0.987793,0.2958984,-0.1176758,-0.5385742
134.375,-25.0625,-34.1875,-0.03955078,0.2695313,0.987793,0.2958984,-0.1176758,-0.5385742
132.125,-28.625,-36.125,-0.01269531,0.3115234,0.9658203,0.2958984,-0.1176758,-0.5385742
130.0625,-31.875,-38.5625,-0.015625,0.3115234,0.9697266,0.2807617,-0.1293945,-0.5327148
127.5625,-35.5625,-40.8125,-0.01269531,0.3076172,0.9458008,0.2807617,-0.1293945,-0.5327148
124.875,-38.9375,-41.75,0.0078125,0.2988281,0.9296875,0.2807617,-0.1293945,-0.5327148
122.0625,-42.4375,-42.75,0.0009765625,0.3085938,0.9248047,0.2832031,-0.1362305,-0.5258789
118.875,-45.625,-45.5625,0.01953125,0.3579102,0.9428711,0.2832031,-0.1362305,-0.5258789
115.1875,-46.625,-50.6875,0.03076172,0.3447266,0.9887695,0.2832031,-0.1362305,-0.5258789
113.3125,-47.1875,-54.375,0.03955078,0.3359375,0.987793,0.2841797,-0.1479492,-0.5273438
110.75,-48.0625,-57,0.05371094,0.315918,0.9926758,0.2841797,-0.1479492,-0.5273438
108.75,-45.5,-59,0.05078125,0.3168945,1.001953,0.2841797,-0.1479492,-0.5273438
105.625,-43.9375,-60.3125,0.03369141,0.3188477,1.026855,0.2841797,-0.1479492,-0.5273438
102.625,-41.875,-61.0625,0.008789063,0.3359375,1.019531,0.2817383,-0.168457,-0.5214844
99.5,-39.6875,-61.8125,0.005859375,0.3359375,1.019531,0.2817383,-0.168457,-0.5214844
97.5625,-36.5,-61.375,-0.01367188,0.3227539,0.9975586,0.2817383,-0.168457,-0.5214844
98.375,-36.8125,-60.5625,-0.02587891,0.3447266,0.9619141,0.2807617,-0.1630859,-0.5229492
99.5,-37.4375,-58.5625,-0.04199219,0.3828125,0.9399414,0.2807617,-0.1630859,-0.5229492
102.5,-38.25,-53.25,-0.03857422,0.3779297,0.9467773,0.2807617,-0.1630859,-0.5229492
105.6875,-37.5,-46.5625,-0.05664063,0.3388672,0.9555664,0.2758789,-0.1757813,-0.5092773
108.125,-35.1875,-40.5625,-0.04980469,0.3676758,0.9765625,0.2758789,-0.1757813,-0.5092773
110.6875,-33.5625,-34,-0.04394531,0.3837891,0.9799805,0.2758789,-0.1757813,-0.5092773
114.1875,-31.1875,-30.75,-0.01660156,0.4365234,0.9736328,0.2758789,-0.1757813,-0.5092773
117.0625,-28.0625,-29.4375,-0.01367188,0.4399414,0.9306641,0.2758789,-0.1757813,-0.5092773
118.75,-25.9375,-29.625,0,0.4848633,0.9116211,0.2758789,-0.1757813,-0.5092773
120.25,-25,-31,0.01367188,0.5019531,0.8916016,0.2758789,-0.1757813,-0.5092773
120,-24.5,-31.3125,0.01660156,0.4936523,0.8725586,0.2783203,-0.1987305,-0.4995117
118.9375,-23.6875,-32.1875,0.04052734,0.4736328,0.8549805,0.2783203,-0.1987305,-0.4995117
115.5625,-24.375,-34.6875,0.04785156,0.487793,0.8427734,0.2783203,-0.1987305,-0.4995117
112.25,-23.9375,-37.9375,0.04492188,0.4946289,0.8608398,0.2773438,-0.1977539,-0.4995117
106.125,-22.375,-41.5,0.03466797,0.4775391,0.8857422,0.2773438,-0.1977539,-0.4995117
99.25,-20.875,-43,0.02392578,0.4897461,0.8979492,0.2773438,-0.1977539,-0.4995117
89.4375,-20.1875,-42.8125,0.009765625,0.4946289,0.8925781,0.2758789,-0.2163086,-0.4926758
85.5625,-22.625,-44,0.01953125,0.4936523,0.8325195,0.2758789,-0.2163086,-0.4926758
84.4375,-27.6875,-45.0625,0.002929688,0.4946289,0.8427734,0.2758789,-0.2163086,-0.4926758
78.75,-32.25,-46.5625,-0.0009765625,0.5029297,0.8466797,0.2758789,-0.2163086,-0.4926758
77.625,-35.875,-49,0.002929688,0.5058594,0.8686523,0.2749023,-0.2246094,-0.4995117
79.4375,-40.9375,-51.0625,0.005859375,0.5048828,0.8325195,0.2749023,-0.2246094,-0.4995117
83.125,-46.25,-55.4375,0.02783203,0.5366211,0.815918,0.2749023,-0.2246094,-0.4995117
85.3125,-50.3125,-59.625,-0.004882813,0.5649414,0.8139648,0.269043,-0.2265625,-0.4853516
88.8125,-53.875,-60.25,-0.005859375,0.527832,0.8388672,0.269043,-0.2265625,-0.4853516
87.8125,-53.3125,-59.3125,-0.05566406,0.5327148,0.8398438,0.269043,-0.2265625,-0.4853516
87.9375,-53.4375,-57,-0.07568359,0.5688477,0.8349609,0.2714844,-0.2280273,-0.4741211
88.375,-53.4375,-53.625,-0.09277344,0.5869141,0.7685547,0.2714844,-0.2280273,-0.4741211
98.3125,-56.375,-50.3125,-0.09570313,0.5976563,0.706543,0.2714844,-0.2280273,-0.4741211
108.4375,-61.3125,-46,-0.08789063,0.605957,0.7197266,0.2714844,-0.2280273,-0.4741211
116.9375,-62.3125,-39.9375,-0.08886719,0.5639648,0.7875977,0.269043,-0.2451172,-0.4868164
123.1875,-61.5,-33.875,-0.06494141,0.5576172,0.8037109,0.269043,-0.2451172,-0.4868164
129.8125,-57.3125,-30.3125,-0.04052734,0.6166992,0.8095703,0.269043,-0.2451172,-0.4868164
137.25,-53.4375,-29.75,-0.02783203,0.625,0.8168945,0.2714844,-0.2509766,-0.4716797
142.875,-48.5,-27.5625,0.002929688,0.6079102,0.7895508,0.2714844,-0.2509766,-0.4716797
146.875,-46.25,-26.5,0.01464844,0.5898438,0.8046875,0.2714844,-0.2509766,-0.4716797
146.75,-44.6875,-24.875,0.046875,0.5688477,0.8085938,0.262207,-0.2661133,-0.4575195
143.6875,-41.375,-23.5625,0.05273438,0.5688477,0.8276367,0.262207,-0.2661133,-0.4575195
138.75,-36.0625,-22.1875,0.07080078,0.5629883,0.8295898,0.262207,-0.2661133,-0.4575195
132,-31.25,-21.4375,0.08496094,0.5639648,0.8696289,0.262207,-0.2661133,-0.4575195
123.875,-27,-21.875,0.05566406,0.6005859,0.8349609,0.262207,-0.2661133,-0.4575195
119.25,-26.0625,-25.125,0.04980469,0.6655273,0.8115234,0.262207,-0.2661133,-0.4575195
117,-24.75,-27.3125,0.04785156,0.6708984,0.8188477,0.262207,-0.2661133,-0.4575195
115.5,-26.1875,-28.875,0.06494141,0.612793,0.7568359,0.2597656,-0.2802734,-0.440918
116,-27.5,-29.625,0.08154297,0.5859375,0.8515625,0.2597656,-0.2802734,-0.440918
112.75,-24.625,-30.25,0.09375,0.5986328,0.8857422,0.2597656,-0.2802734,-0.440918
108.25,-19.5,-33.625,0.07470703,0.6645508,0.9199219,0.2680664,-0.2954102,-0.440918
102.4375,-13.9375,-37.375,0.09179688,0.6899414,0.8945313,0.2680664,-0.2954102,-0.440918
98.625,-9.375,-39.3125,0.08154297,0.6635742,0.8466797,0.2680664,-0.2954102,-0.440918
92.6875,-6.5,-41.625,0.05859375,0.6767578,0.8095703,0.2680664,-0.2954102,-0.440918
84.75,-4.3125,-42.4375,0.03369141,0.7075195,0.737793,0.2680664,-0.2954102,-0.440918
80.5,-6.0625,-42.125,-0.02685547,0.7265625,0.690918,0.2680664,-0.2954102,-0.440918
72.6875,-8,-41.375,-0.03759766,0.7319336,0.659668,0.2680664,-0.2954102,-0.440918
66,-8.875,-40.0625,-0.06396484,0.7436523,0.6425781,0.2700195,-0.3056641,-0.418457
63.1875,-10,-39,-0.09277344,0.7607422,0.6376953,0.2700195,-0.3056641,-0.418457
62,-9.8125,-35,-0.07958984,0.7456055,0.6499023,0.2700195,-0.3056641,-0.418457
62.4375,-8.75,-30.375,-0.09179688,0.7207031,0.6416016,0.2641602,-0.309082,-0.4199219
63.3125,-8.5625,-26.375,-0.08251953,0.7216797,0.659668,0.2641602,-0.309082,-0.4199219
64.6875,-6.875,-21.4375,-0.07958984,0.7407227,0.6489258,0.2641602,-0.309082,-0.4199219
65.25,-6.5,-18.3125,-0.08251953,0.7456055,0.6635742,0.2680664,-0.3032227,-0.4155273
65.125,-5.4375,-15.625,-0.08251953,0.7539063,0.6645508,0.2680664,-0.3032227,-0.4155273
64.8125,-6,-12.1875,-0.08056641,0.71875,0.671875,0.2680664,-0.3032227,-0.4155273
64.5,-7.125,-7.375,-0.07275391,0.7016602,0.6879883,0.2680664,-0.3032227,-0.4155273
65.3125,-7.0625,-1.25,-0.06298828,0.690918,0.7036133,0.265625,-0.3173828,-0.4101563
66.3125,-7.375,4.25,-0.03759766,0.6796875,0.7207031,0.265625,-0.3173828,-0.4101563
66.5625,-7.75,9.5625,-0.01171875,0.6616211,0.7197266,0.265625,-0.3173828,-0.4101563
65.125,-9.125,15.6875,-0.01171875,0.652832,0.8369141,0.262207,-0.3139648,-0.4057617
63.8125,-10.0625,18.5625,0.009765625,0.6958008,0.7646484,0.262207,-0.3139648,-0.4057617
60.75,-10.8125,20.375,0.02587891,0.7167969,0.7666016,0.262207,-0.3139648,-0.4057617
59.5625,-11.5,20.1875,0.02880859,0.7319336,0.7636719,0.2666016,-0.3266602,-0.4047852
57.625,-12,19.5625,0.03369141,0.7636719,0.8398438,0.2666016,-0.3266602,-0.4047852
53.9375,-9.625,16.9375,0.03271484,0.7885742,0.7998047,0.2666016,-0.3266602,-0.4047852
50.75,-9.9375,14.875,0.04394531,0.8056641,0.7446289,0.2666016,-0.3266602,-0.4047852
47.0625,-11.125,13.5625,0.04980469,0.7875977,0.7045898,0.2700195,-0.3198242,-0.3959961
42.625,-12.0625,13.125,0.04296875,0.7885742,0.6889648,0.2700195,-0.3198242,-0.3959961
38.875,-12.375,12.1875,0.06494141,0.8066406,0.6635742,0.2700195,-0.3198242,-0.3959961
37.125,-11.5625,11.75,0.07080078,0.7685547,0.6386719,0.2631836,-0.3256836,-0.3920898
35.6875,-8.6875,13.5,0.09375,0.7509766,0.640625,0.2631836,-0.3256836,-0.3920898
33.25,-4.0625,12.75,0.09472656,0.7709961,0.6748047,0.2631836,-0.3256836,-0.3920898
29.8125,-0.0625,13,0.07861328,0.7836914,0.690918,0.269043,-0.3256836,-0.3876953
25.4375,3.875,12.5,0.05957031,0.7817383,0.6889648,0.269043,-0.3256836,-0.3876953
23.3125,8.0625,11.6875,0.03076172,0.8129883,0.6899414,0.269043,-0.3256836,-0.3876953
23.6875,11.9375,9.5625,0.008789063,0.8198242,0.6767578,0.269043,-0.3256836,-0.3876953
28.75,14.9375,8.0625,0.01171875,0.831543,0.6928711,0.269043,-0.3256836,-0.3876953
35.25,18.8125,7.3125,0.001953125,0.7929688,0.7119141,0.269043,-0.3256836,-0.3876953
40.625,21.625,8.5,-0.00390625,0.7509766,0.7006836,0.269043,-0.3256836,-0.3876953
45.625,23.4375,10.4375,0.0009765625,0.7675781,0.6669922,0.2641602,-0.3291016,-0.3837891
53.625,23.375,10.5625,0.002929688,0.8066406,0.6225586,0.2641602,-0.3291016,-0.3837891
65.375,22.625,7.6875,0.001953125,0.8217773,0.6015625,0.2641602,-0.3291016,-0.3837891
76.875,20.8125,5.75,0.01855469,0.815918,0.5859375,0.2548828,-0.3300781,-0.3779297
86.0625,18.875,4.5,0.02099609,0.8046875,0.5898438,0.2548828,-0.3300781,-0.3779297
82.625,16.9375,3.875,0.02197266,0.8129883,0.581543,0.2548828,-0.3300781,-0.3779297
80.4375,13.3125,1.875,0.00390625,0.8359375,0.5717773,0.2573242,-0.3427734,-0.3793945
76.1875,9.375,0.4375,-0.00390625,0.8525391,0.5429688,0.2573242,-0.3427734,-0.3793945
73.875,5.8125,-1.3125,0.0009765625,0.8457031,0.5258789,0.2573242,-0.3427734,-0.3793945
71.5625,0.9375,-1.25,0.02099609,0.815918,0.5166016,0.2573242,-0.3427734,-0.3793945
66.4375,-5.9375,-1.375,0.01757813,0.8227539,0.5395508,0.2548828,-0.340332,-0.3657227
61.625,-9.875,-2.1875,0.0546875,0.8325195,0.546875,0.2548828,-0.340332,-0.3657227
59.125,-12.5625,-4.3125,0.07568359,0.8476563,0.5546875,0.2548828,-0.340332,-0.3657227
59.0625,-14.6875,-7.125,0.07763672,0.8417969,0.5576172,0.262207,-0.340332,-0.3642578
62.8125,-14.75,-10.125,0.08886719,0.8378906,0.5678711,0.262207,-0.340332,-0.3642578
67.1875,-11.5,-10.75,0.09082031,0.8056641,0.6845703,0.262207,-0.340332,-0.3642578
75.5625,-1.6875,-10.6875,0.08056641,0.8105469,0.7368164,0.2548828,-0.3510742,-0.355957
85.8125,7.3125,-10.125,0.07763672,0.8227539,0.7128906,0.2548828,-0.3510742,-0.355957
92.25,13.9375,-10.625,0.09277344,0.8168945,0.6655273,0.2548828,-0.3510742,-0.355957
98.875,15.9375,-11.4375,0.08154297,0.8208008,0.5957031,0.2548828,-0.3510742,-0.355957
107.875,15.6875,-12.875,0.0859375,0.8256836,0.5615234,0.2641602,-0.3417969,-0.3569336
116,12.625,-16.0625,0.07275391,0.8408203,0.5336914,0.2641602,-0.3417969,-0.3569336
119.6875,9.75,-18.0625,0.07080078,0.855957,0.5317383,0.2641602,-0.3417969,-0.3569336
121.125,7.875,-20.5625,0.05371094,0.8769531,0.5327148,0.2641602,-0.3569336,-0.3461914
118.0625,6.1875,-21.8125,0.03662109,0.8706055,0.4755859,0.2641602,-0.3569336,-0.3461914
112.625,4.125,-22.125,0.01953125,0.8769531,0.4609375,0.2641602,-0.3569336,-0.3461914
105.625,-0.0625,-22,-0.01660156,0.8896484,0.4355469,0.2607422,-0.3647461,-0.3349609
99.8125,-4.75,-21.5,-0.02392578,0.8779297,0.4057617,0.2607422,-0.3647461,-0.3349609
93.25,-10,-20.8125,-0.03369141,0.8818359,0.4057617,0.2607422,-0.3647461,-0.3349609
91.875,-14.5,-20.0625,-0.03271484,0.8916016,0.4238281,0.2607422,-0.3647461,-0.3349609
87.5625,-18.4375,-20.1875,-0.01953125,0.8959961,0.4575195,0.2607422,-0.3647461,-0.3349609
87.3125,-18.9375,-19.6875,-0.02392578,0.8916016,0.4677734,0.2607422,-0.3647461,-0.3349609
87.8125,-20.75,-19,-0.01953125,0.8945313,0.4609375,0.2607422,-0.3647461,-0.3349609
87.625,-21.9375,-18.1875,-0.01464844,0.8735352,0.4399414,0.2734375,-0.3662109,-0.3154297
87.375,-25,-16.9375,-0.006835938,0.8828125,0.4355469,0.2734375,-0.3662109,-0.3154297
86.6875,-26.6875,-15.9375,-0.006835938,0.9077148,0.4755859,0.2734375,-0.3662109,-0.3154297
87.5625,-24.4375,-15.5625,0.01855469,0.9086914,0.4907227,0.269043,-0.3754883,-0.3110352
87.5625,-22.25,-14.25,-0.009765625,0.9038086,0.4887695,0.269043,-0.3754883,-0.3110352
86.5,-20.5625,-13.1875,-0.001953125,0.9047852,0.4536133,0.269043,-0.3754883,-0.3110352
84.25,-19.125,-11.25,0.001953125,0.9047852,0.4399414,0.269043,-0.3754883,-0.3110352
82.4375,-15.625,-9,-0.008789063,0.9057617,0.4306641,0.269043,-0.3754883,-0.3110352
79.3125,-11.1875,-7.125,-0.00390625,0.9189453,0.4326172,0.269043,-0.3754883,-0.3110352
78.4375,-4.0625,-5.75,0.006835938,0.9306641,0.4648438,0.269043,-0.3754883,-0.3110352
78.1875,4.375,-5.5,0.008789063,0.9277344,0.4785156,0.2700195,-0.3764648,-0.2885742
78.6875,11.125,-5.0625,0,0.9379883,0.4169922,0.2700195,-0.3764648,-0.2885742
78.625,14.875,-4.9375,0.0078125,0.9428711,0.3959961,0.2700195,-0.3764648,-0.2885742
76.625,15.4375,-4.875,0.015625,0.9257813,0.3647461,0.2641602,-0.390625,-0.2973633
73,15,-4.25,0.02197266,0.9267578,0.3769531,0.2641602,-0.390625,-0.2973633
70.75,15.375,-4.3125,0.01855469,0.921875,0.3818359,0.2641602,-0.390625,-0.2973633
68.375,15.5,-5,0.0078125,0.9267578,0.4116211,0.2680664,-0.3813477,-0.2734375
64.3125,15.125,-4.5625,0.004882813,0.9477539,0.4155273,0.2680664,-0.3813477,-0.2734375
62.125,13.6875,-5.0625,0,0.9609375,0.4018555,0.2680664,-0.3813477,-0.2734375
59.75,11.8125,-5.25,-0.01074219,0.9418945,0.4106445,0.2680664,-0.3813477,-0.2734375
57.0625,9.3125,-4.3125,0.00390625,0.9428711,0.3876953,0.2724609,-0.3833008,-0.2763672
55.4375,5.375,-3.9375,0.01074219,0.940918,0.3818359,0.2724609,-0.3833008,-0.2763672
54.4375,3.5,-4.125,0.002929688,0.9619141,0.4296875,0.2724609,-0.3833008,-0.2763672
55.0625,3.1875,-5.625,-0.01269531,0.9477539,0.409668,0.2734375,-0.3823242,-0.2719727
57,1.9375,-5.9375,-0.02685547,0.9526367,0.3989258,0.2734375,-0.3823242,-0.2719727
56.8125,-0.3125,-6.6875,-0.03173828,0.956543,0.3725586,0.2734375,-0.3823242,-0.2719727
56.0625,-3,-6.6875,-0.04296875,0.9829102,0.362793,0.2734375,-0.3891602,-0.2695313
53.5625,-4,-6.125,-0.06298828,0.9819336,0.3647461,0.2734375,-0.3891602,-0.2695313
50.375,-5.6875,-5.375,-0.06494141,0.980957,0.3496094,0.2734375,-0.3891602,-0.2695313
44.75,-5.4375,-3.75,-0.06152344,0.987793,0.331543,0.2734375,-0.3891602,-0.2695313
40.375,-5.625,-1.25,-0.06884766,0.9628906,0.324707,0.2734375,-0.3891602,-0.2695313
38.25,-4.8125,-0.875,-0.06494141,0.9575195,0.3237305,0.2734375,-0.3891602,-0.2695313
36.25,-3.3125,-0.3125,-0.06396484,0.9848633,0.3359375,0.2734375,-0.3891602,-0.2695313
35.0625,-1.3125,0.25,-0.05859375,0.9829102,0.3378906,0.2714844,-0.3950195,-0.2597656
34.9375,1.25,-0.4375,-0.04980469,0.9829102,0.355957,0.2714844,-0.3950195,-0.2597656
36.75,2.625,-4.0625,-0.05273438,1.012695,0.3696289,0.2714844,-0.3950195,-0.2597656
37.875,2.75,-1.8125,-0.01269531,0.9516602,0.331543,0.2734375,-0.3891602,-0.2539063
42.0625,5.25,0.3125,0.0078125,1.031738,0.4379883,0.2734375,-0.3891602,-0.2539063
49.8125,13.6875,-2.5,0.01367188,0.9599609,0.4667969,0.2734375,-0.3891602,-0.2539063
64.5,26.125,-7.6875,0.01855469,0.909668,0.4848633,0.2734375,-0.3891602,-0.2539063
77.625,27.25,-14.9375,0.06298828,0.8608398,0.4116211,0.2734375,-0.3891602,-0.2539063
82.1875,25.625,-12.9375,0.07666016,0.9155273,0.375,0.2734375,-0.3891602,-0.2539063
88.5,23.5,-14.5,0.07177734,0.9438477,0.3447266,0.2734375,-0.3891602,-0.2539063
87.5625,22.1875,-14.4375,0.07080078,0.9619141,0.3286133,0.2734375,-0.394043,-0.2412109
86.75,21.8125,-13.0625,0.07275391,0.9746094,0.3305664,0.2734375,-0.394043,-0.2412109
84.0625,22.25,-14.1875,0.06591797,1.010742,0.3056641,0.2734375,-0.394043,-0.2412109
79.25,20.5,-18,0.06884766,1.084961,0.2246094,0.2792969,-0.394043,-0.2373047
71.0625,16.6875,-19.5625,0.04785156,0.9658203,0.2607422,0.2792969,-0.394043,-0.2373047
65.875,15.5,-18.8125,0.02392578,0.9628906,0.2548828,0.2792969,-0.394043,-0.2373047
59.5625,13.4375,-17.1875,0.0078125,0.9868164,0.2436523,0.2807617,-0.3950195,-0.2314453
55.875,12.75,-16.4375,-0.009765625,0.996582,0.2729492,0.2807617,-0.3950195,-0.2314453
53.125,13.1875,-15.9375,-0.009765625,1.014648,0.3066406,0.2807617,-0.3950195,-0.2314453
51.4375,13.1875,-16,-0.02294922,1.060547,0.315918,0.2807617,-0.3950195,-0.2314453
51.0625,12.75,-18.1875,-0.046875,1.088867,0.3369141,0.2866211,-0.3974609,-0.2290039
52,13,-23.0625,-0.06054688,1.023926,0.3398438,0.2866211,-0.3974609,-0.2290039
55.5625,12.5625,-24,-0.08154297,1.023926,0.2807617,0.2866211,-0.3974609,-0.2290039
59.25,12.4375,-24.25,-0.06298828,0.9575195,0.2807617,0.2832031,-0.4008789,-0.2192383
66.125,12.25,-25.6875,-0.09667969,0.9887695,0.2558594,0.2832031,-0.4008789,-0.2192383
70.125,10.9375,-25.25,-0.09375,0.9848633,0.2348633,0.2832031,-0.4008789,-0.2192383
76.25,8.3125,-25.75,-0.07763672,0.9819336,0.2006836,0.2773438,-0.394043,-0.2094727
82.625,6.9375,-26.1875,-0.06787109,0.9868164,0.1616211,0.2773438,-0.394043,-0.2094727
84.5,2.875,-25.5,-0.05957031,0.9345703,0.1806641,0.2773438,-0.394043,-0.2094727
81.0625,0.5,-24.4375,-0.08154297,0.9438477,0.1557617,0.2773438,-0.394043,-0.2094727
87,-1.8125,-24.6875,-0.07470703,1.003906,0.1347656,0.2866211,-0.4023438,-0.1982422
88.75,-5.125,-27.1875,-0.08886719,1.026855,0.07177734,0.2866211,-0.4023438,-0.1982422
89.5,-10.8125,-28.25,-0.09179688,0.9887695,0.1318359,0.2866211,-0.4023438,-0.1982422
86.5,-17.125,-28.125,-0.09960938,0.9335938,0.1357422,0.2944336,-0.3999023,-0.1923828
86.75,-21.9375,-25.125,-0.1186523,0.9609375,0.1157227,0.2944336,-0.3999023,-0.1923828
85.3125,-27.4375,-24.25,-0.1137695,0.996582,0.05957031,0.2944336,-0.3999023,-0.1923828
78.5,-32.9375,-22.125,-0.1118164,1.008789,0.02685547,0.2944336,-0.3999023,-0.1826172
71.8125,-39.0625,-20.375,-0.1157227,0.996582,0.02099609,0.2944336,-0.3999023,-0.1826172
64.375,-46.25,-16.125,-0.1166992,0.9907227,0.00390625,0.2944336,-0.3999023,-0.1826172
57.6875,-50.125,-13.1875,-0.1225586,1.011719,-0.0078125,0.2944336,-0.3999023,-0.1826172
50.1875,-50.8125,-10.8125,-0.1337891,1.021973,0.0078125,0.2944336,-0.3999023,-0.1826172
40.625,-49.0625,-6.5,-0.07763672,0.9506836,0.03271484,0.2944336,-0.3999023,-0.1826172
30.875,-44.8125,-2.4375,-0.06884766,0.9887695,0.06152344,0.2944336,-0.3999023,-0.1826172
24,-41.25,0.9375,-0.05761719,0.9887695,0.06494141,0.2910156,-0.4057617,-0.1787109
17.875,-36.625,2.9375,-0.03076172,0.987793,0.07568359,0.2910156,-0.4057617,-0.1787109
14.5625,-34.75,4.5625,-0.02294922,0.9785156,0.09570313,0.2910156,-0.4057617,-0.1787109
10.375,-32.0625,7.0625,-0.006835938,0.9736328,0.1235352,0.296875,-0.4150391,-0.1743164
8,-29.25,8.875,0.01660156,0.996582,0.1748047,0.296875,-0.4150391,-0.1743164
7.1875,-25.5,10.125,0.03271484,1.016602,0.2045898,0.296875,-0.4150391,-0.1743164
7.875,-22.25,9.75,0.03173828,1.019531,0.2119141,0.296875,-0.4042969,-0.1743164
6.5,-18.3125,8.6875,0.01953125,1.021973,0.2138672,0.296875,-0.4042969,-0.1743164
5.4375,-14.5625,9.25,0.01660156,1.026855,0.2275391,0.296875,-0.4042969,-0.1743164
2.3125,-11.0625,9.5625,0.01367188,1.035645,0.2358398,0.296875,-0.4042969,-0.1743164
-0.4375,-5.375,8.8125,0.008789063,1.048828,0.2446289,0.2851563,-0.4033203,-0.1728516
-2.8125,-0.5625,7.625,0.01171875,1.050781,0.2265625,0.2851563,-0.4033203,-0.1728516
-5.125,1.9375,6.5,0.0009765625,1.036621,0.2265625,0.2851563,-0.4033203,-0.1728516
-6.875,3.1875,6.6875,-0.009765625,1.023926,0.2099609,0.2924805,-0.4091797,-0.1757813
-9.75,1.625,6.1875,-0.02099609,1.020996,0.2138672,0.2924805,-0.4091797,-0.1757813
-11.625,0.4375,5.5625,-0.02587891,1.023926,0.2275391,0.2924805,-0.4091797,-0.1757813
-1.0625,-3.9375,-2.0625,-0.06982422,1.48584,-0.5986328,0.2900391,-0.4116211,-0.1801758
2.9375,-34.625,-14.4375,0.05957031,0.8989258,0.1489258,0.2900391,-0.4116211,-0.1801758
11.5625,-44.25,-10.125,-0.0009765625,0.9438477,0.3886719,0.2900391,-0.4116211,-0.1801758
20.8125,-35.375,-8.8125,-0.1025391,1.081543,0.4448242,0.2900391,-0.4116211,-0.1801758
26,-24.5625,-8.875,-0.09667969,1.101563,0.4487305,0.2875977,-0.4008789,-0.171875
27.375,-14.6875,-9.8125,-0.04492188,1.069824,0.3569336,0.2875977,-0.4008789,-0.171875
26,-9.4375,-7.9375,-0.01757813,0.996582,0.2265625,0.2875977,-0.4008789,-0.171875
24.25,-10.4375,-5.875,-0.01367188,0.9946289,0.1777344,0.2875977,-0.4057617,-0.1674805
22.3125,-13.9375,-5.6875,-0.04492188,1.020996,0.1259766,0.2875977,-0.4057617,-0.1674805
22,-17.3125,-6.5,-0.04492188,1.031738,0.1425781,0.2875977,-0.4057617,-0.1674805
22.125,-17.375,-8.1875,-0.03759766,1.040527,0.1586914,0.293457,-0.4033203,-0.1704102
23.1875,-15.875,-8.5625,-0.02978516,1.004883,0.1767578,0.293457,-0.4033203,-0.1704102
24.75,-14.5625,-7.8125,-0.03076172,0.9975586,0.1948242,0.293457,-0.4033203,-0.1704102
27.9375,-11.625,-6.4375,-0.03564453,1.001953,0.1816406,0.293457,-0.4033203,-0.1704102
30,-10.625,-5.125,-0.03857422,1.038574,0.1699219,0.293457,-0.4033203,-0.1704102
31.4375,-10.3125,-6.75,-0.04052734,1.063965,0.1577148,0.293457,-0.4033203,-0.1704102
32.75,-9.9375,-8.5625,-0.04785156,1.056641,0.1577148,0.293457,-0.4033203,-0.1704102
35,-10.1875,-10.6875,-0.04296875,1.052734,0.1518555,0.2885742,-0.4091797,-0.1704102
34.9375,-9.875,-10.1875,-0.04589844,1.026855,0.1357422,0.2885742,-0.4091797,-0.1704102
33.3125,-10.0625,-10.0625,-0.05859375,1.044922,0.1186523,0.2885742,-0.4091797,-0.1704102
30.375,-10.25,-9.3125,-0.06787109,1.037598,0.09667969,0.2944336,-0.4042969,-0.1630859
25.3125,-10.3125,-9.875,-0.06494141,1.033691,0.08056641,0.2944336,-0.4042969,-0.1630859
20.3125,-10.9375,-8.875,-0.06787109,1.045898,0.07958984,0.2944336,-0.4042969,-0.1630859
14.5,-11.625,-8.125,-0.06396484,1.045898,0.07275391,0.2924805,-0.4057617,-0.1621094
8.1875,-12.4375,-6.1875,-0.05371094,1.035645,0.09179688,0.2924805,-0.4057617,-0.1621094
2.5,-9.9375,-4.3125,-0.04785156,1.030762,0.1289063,0.2924805,-0.4057617,-0.1621094
-1.125,-7.25,-3.125,-0.05273438,1.046875,0.1357422,0.2924805,-0.4057617,-0.1621094
-6.125,-3.8125,-2.4375,-0.05175781,1.042969,0.1318359,0.2900391,-0.4091797,-0.1621094
-9.75,-1.8125,-1.875,-0.04052734,1.046875,0.1318359,0.2900391,-0.4091797,-0.1621094
-13.375,-0.5,-2.25,-0.04980469,1.046875,0.1137695,0.2900391,-0.4091797,-0.1621094
-16.875,1.125,-2.1875,-0.05078125,1.041992,0.1196289,0.296875,-0.4067383,-0.1645508
-17.75,1.75,-3.25,-0.05859375,1.001953,0.09179688,0.296875,-0.4067383,-0.1645508
-16.875,2.5,-4.5625,-0.04882813,1.017578,0.09570313,0.296875,-0.4067383,-0.1645508
-17.125,0.9375,-5.375,-0.05859375,1.018555,0.08154297,0.2958984,-0.4067383,-0.1630859
-17.5,-0.0625,-5.75,-0.05566406,1.013672,0.09277344,0.2958984,-0.4067383,-0.1630859
-19.0625,-0.375,-6.625,-0.0546875,1.020996,0.09960938,0.2958984,-0.4067383,-0.1630859
-21.125,0.3125,-6.125,-0.04785156,1.025879,0.1025391,0.2958984,-0.4067383,-0.1630859
-23.375,0.75,-6.0625,-0.04589844,1.017578,0.105957,0.300293,-0.4033203,-0.15625
-25.75,0.625,-5.75,-0.05078125,1.011719,0.1137695,0.300293,-0.4033203,-0.15625
-27.8125,1.875,-5.9375,-0.04980469,1.009766,0.112793,0.300293,-0.4033203,-0.15625
-30.25,2.6875,-5.375,-0.04589844,1.007813,0.1196289,0.2944336,-0.4033203,-0.1547852
-31.6875,4.1875,-5.375,-0.04492188,1.006836,0.1279297,0.2944336,-0.4033203,-0.1547852
-33.5625,4.875,-5.5625,-0.04980469,1.000977,0.1196289,0.2944336,-0.4033203,-0.1547852
-35.75,6.4375,-5.875,-0.05371094,1.000977,0.1318359,0.3017578,-0.4101563,-0.1645508
-37.3125,5.375,-5.1875,-0.05078125,0.9946289,0.1357422,0.3017578,-0.4101563,-0.1645508
-38.5,4.125,-4.875,-0.06054688,0.996582,0.1347656,0.3017578,-0.4101563,-0.1645508
-38.125,1.5625,-4.4375,-0.06298828,1.005859,0.1308594,0.3017578,-0.4101563,-0.1645508
-39.3125,-1.5625,-4.125,-0.05761719,1.005859,0.1499023,0.3017578,-0.4101563,-0.1645508
-40.1875,-4.4375,-2.6875,-0.06689453,1.018555,0.1386719,0.3017578,-0.4101563,-0.1645508
-40.8125,-5.875,-3.125,-0.06298828,1.026855,0.1748047,0.3017578,-0.4101563,-0.1645508
-41.9375,-7.75,-2.625,-0.06689453,1.029785,0.1796875,0.2958984,-0.4067383,-0.1689453
-42.4375,-7.1875,-2.625,-0.05371094,1.014648,0.2006836,0.2958984,-0.4067383,-0.1689453
-42.875,-7.0625,-2,-0.04492188,1.009766,0.1928711,0.2958984,-0.4067383,-0.1689453
-42.9375,-7.5625,-0.625,-0.04589844,1.009766,0.1879883,0.3027344,-0.4116211,-0.171875
-43.4375,-7.6875,-0.875,-0.04492188,1.005859,0.1635742,0.3027344,-0.4116211,-0.171875
-43.8125,-9.375,-0.25,-0.046875,1.014648,0.1757813,0.3027344,-0.4116211,-0.171875
-44.25,-10.0625,-0.625,-0.04199219,1.021973,0.1787109,0.3027344,-0.4116211,-0.171875
-45.625,-10.375,0,-0.05078125,1.026855,0.1918945,0.3027344,-0.4116211,-0.171875
-46.8125,-9.5,-1.0625,-0.046875,1.031738,0.1977539,0.3027344,-0.4116211,-0.171875
-47.9375,-8.625,-0.5,-0.05566406,1.050781,0.2045898,0.3027344,-0.4116211,-0.171875
-51.75,-7.25,0,-0.06298828,1.051758,0.1918945,0.3017578,-0.4101563,-0.1855469
-55.3125,-5.4375,0.8125,-0.06494141,1.039551,0.1948242,0.3017578,-0.4101563,-0.1855469
-60.1875,-3.8125,1.8125,-0.05859375,1.046875,0.2148438,0.3017578,-0.4101563,-0.1855469
-65.6875,-1.5,2.4375,-0.06787109,1.031738,0.1928711,0.3037109,-0.4125977,-0.1967773
-69,2,1.9375,-0.06054688,1.020996,0.1918945,0.3037109,-0.4125977,-0.1967773
-69,3.875,1,-0.046875,1.025879,0.2128906,0.3037109,-0.4125977,-0.1967773
-68.8125,6.875,-0.0625,-0.04394531,1.015625,0.2255859,0.300293,-0.4008789,-0.1923828
-67.75,10,-1.375,-0.03955078,1.026855,0.2236328,0.300293,-0.4008789,-0.1923828
-67.6875,10.75,-1.6875,-0.04492188,1.017578,0.2299805,0.300293,-0.4008789,-0.1923828
-68.3125,12.75,-1.6875,-0.04492188,1.017578,0.2426758,0.300293,-0.4008789,-0.1923828
-69.875,14.8125,-2.1875,-0.04589844,1.023926,0.2475586,0.300293,-0.4033203,-0.2021484
-72.8125,17.125,-0.75,-0.06054688,1.027832,0.2587891,0.300293,-0.4033203,-0.2021484
-75.75,18.125,-0.625,-0.06152344,1.039551,0.2587891,0.300293,-0.4033203,-0.2021484
-79.4375,18.8125,0.3125,-0.06787109,1.042969,0.2617188,0.3076172,-0.4101563,-0.2133789
-85.375,18.6875,0.375,-0.07177734,1.041992,0.2587891,0.3076172,-0.4101563,-0.2133789
-91.8125,18.1875,1.8125,-0.07080078,1.037598,0.284668,0.3076172,-0.4101563,-0.2133789
-98,19.125,2.8125,-0.06787109,1.047852,0.2885742,0.3027344,-0.3984375,-0.2231445
-106.125,20.5,4.0625,-0.07275391,1.060547,0.3105469,0.3027344,-0.3984375,-0.2231445
-115.9375,20.5,5.75,-0.06494141,1.042969,0.3066406,0.3027344,-0.3984375,-0.2231445
-125.9375,21.75,8,-0.04785156,1.064941,0.331543,0.3027344,-0.3984375,-0.2231445
-138,21.8125,9.0625,-0.07177734,1.025879,0.2885742,0.3027344,-0.3984375,-0.2231445
-150.8125,20.4375,13.125,-0.06396484,1.038574,0.1967773,0.3027344,-0.3984375,-0.2231445
-170.3125,14.5,20.9375,-0.07861328,1.017578,0.3237305,0.3027344,-0.3984375,-0.2231445
-190.5625,11.8125,26.3125,-0.06494141,1,0.3579102,0.2983398,-0.3964844,-0.2412109
-207.3125,17.5,29.3125,-0.08154297,1.016602,0.4077148,0.2983398,-0.3964844,-0.2412109
-221.4375,24.0625,30.25,-0.04492188,1.009766,0.4189453,0.2983398,-0.3964844,-0.2412109
-233.8125,28.25,31.9375,-0.05566406,0.9555664,0.3696289,0.2958984,-0.3984375,-0.2607422
-240.25,31.25,31.375,-0.046875,0.9335938,0.3828125,0.2958984,-0.3984375,-0.2607422
-246.5,32.625,32.1875,-0.03564453,0.9135742,0.3798828,0.2958984,-0.3984375,-0.2607422
-252.9375,31.4375,31.75,-0.01953125,0.9077148,0.3999023,0.2958984,-0.3984375,-0.2607422
-258.0625,30.5625,30.6875,-0.02685547,0.9057617,0.4355469,0.2958984,-0.3984375,-0.2607422
-263,29.6875,29.375,-0.02392578,0.8935547,0.4316406,0.2958984,-0.3984375,-0.2607422
-263.75,29.5625,26.0625,-0.03076172,0.8847656,0.4379883,0.2958984,-0.3984375,-0.2607422
-259.4375,27.1875,24,-0.02294922,0.8608398,0.449707,0.2885742,-0.3798828,-0.3041992
-255.1875,26.125,22.875,-0.02490234,0.8305664,0.4858398,0.2885742,-0.3798828,-0.3041992
-250.4375,24.5,21.5625,-0.03173828,0.8276367,0.5439453,0.2885742,-0.3798828,-0.3041992
-246.25,25.625,20.75,-0.03369141,0.8286133,0.574707,0.293457,-0.3720703,-0.3266602
-239.4375,26.25,19.125,-0.04394531,0.8295898,0.5927734,0.293457,-0.3720703,-0.3266602
-233.125,27.9375,17.3125,-0.06494141,0.8369141,0.6079102,0.293457,-0.3720703,-0.3266602
-227.8125,29.125,14.75,-0.07177734,0.8359375,0.6279297,0.2924805,-0.3579102,-0.3447266
-225.3125,30.875,13.9375,-0.07861328,0.8256836,0.6459961,0.2924805,-0.3579102,-0.3447266
-226.6875,30.9375,14.125,-0.09570313,0.8139648,0.6435547,0.2924805,-0.3579102,-0.3447266
-231.0625,33.3125,15.1875,-0.09277344,0.8007813,0.6499023,0.2924805,-0.3579102,-0.3447266
-235.5,35.75,15.8125,-0.09960938,0.7856445,0.6416016,0.2885742,-0.3496094,-0.3740234
-242.0625,36.9375,16.75,-0.1147461,0.7905273,0.5957031,0.2885742,-0.3496094,-0.3740234
-250.625,35.375,17.125,-0.125,0.7856445,0.6118164,0.2885742,-0.3496094,-0.3740234
-256.375,34.9375,14.375,-0.1196289,0.7958984,0.6049805,0.2875977,-0.3291016,-0.3935547
-260.4375,32.9375,10.625,-0.112793,0.7988281,0.5776367,0.2875977,-0.3291016,-0.3935547
-261.1875,28.6875,6.125,-0.1025391,0.7729492,0.5649414,0.2875977,-0.3291016,-0.3935547
-260.75,24.0625,1.625,-0.0859375,0.7666016,0.6088867,0.300293,-0.3291016,-0.4047852
-260.4375,21.5625,-3,-0.08496094,0.7636719,0.6166992,0.300293,-0.3291016,-0.4047852
-259.5,16.125,-7.25,-0.07666016,0.7548828,0.6225586,0.300293,-0.3291016,-0.4047852
-258,9.5,-11.3125,-0.08251953,0.7329102,0.6396484,0.300293,-0.3291016,-0.4047852
-255.75,4.375,-15.0625,-0.08056641,0.7216797,0.6806641,0.3017578,-0.3022461,-0.4267578
-253.125,-0.0625,-17.0625,-0.1015625,0.7045898,0.6967773,0.3017578,-0.3022461,-0.4267578
-249.625,-1.5,-18.0625,-0.1079102,0.6899414,0.7119141,0.3017578,-0.3022461,-0.4267578
-247.875,-4.0625,-17.875,-0.1079102,0.6748047,0.690918,0.2993164,-0.284668,-0.4438477
-244.5625,-8.375,-19.75,-0.1166992,0.652832,0.6928711,0.2993164,-0.284668,-0.4438477
-241.9375,-13.5,-22.75,-0.1186523,0.6616211,0.7006836,0.2993164,-0.284668,-0.4438477
-237.5,-17.875,-26.1875,-0.1279297,0.6635742,0.7539063,0.300293,-0.2768555,-0.4521484
